"view_history","rt","trial_type","trial_index","time_elapsed","internal_node_id","condition","PID","stimulus","button_pressed","key_press","responses","banditTrial","choice","cue","feedback","magnit"
"[{""page_index"":0,""viewing_time"":31550}]","31551","instructions",0,31564,"0.0-0.0","0","10302","",NA,"","",NA,NA,NA,NA,""
"","41509","html-button-response",1,73078,"0.0-1.0","0","10302","<p>This experiment is now online instead of in-person in a controlled computer lab due to the current COVID-19 pandemic.</br> Please focus on the experiment and refrain from activities such as:</p>- <b>switching to other tabs on your browser (this will be monitored via the experiment)</br> - going on your mobile phone/cell phone</br> - communicating with others</br></br></b><p>This way you are helping to provide data that is useful for psychological research.</p>",0,"","",NA,NA,NA,NA,""
"","2828","html-keyboard-response",2,75910,"0.0-2.0","0","10302","<p>Welcome to the experiment.</p><p>Press the SPACE bar to continue</p>",NA,"32","",NA,NA,NA,NA,""
"","4871.55999999959","survey-text",3,80801,"0.0-3.0","0","10302","",NA,"","{""undefined"":""30""}",NA,NA,NA,NA,""
"","2314","survey-multi-choice",4,83122,"0.0-4.0","0","10302","",NA,"","{""Q0"":""Male""}",NA,NA,NA,NA,""
"","110000","html-button-response",5,193126,"0.0-5.0-0.0","0","10302","<p> On each trial throughout the experiment you will choose between the options </br><b> Find Out Now </b> and <b> Keep It Secret </b>, as seen below.</p><div><div style= 'float: left; width: 300px; margin: 10px 10px;'><img src= 'NWTKimg/KeepItSecret.jpg'></img></div><div style= 'float: right; width: 300px; margin: 10px 10px;'><img src= 'NWTKimg/FindOutNow.jpg'></img></div></div><br/><br/><br/><br/><br/><br/><br/><br/><br/><br/><br/><p>Each option results in winning points or receiving 0 points.</br>There is a 50% chance of either winning or receiving 0 points, but you won't receive the outcome until after a <b> 20 second delay</b>.</p><p>You can however gain information about the outcome as the two options, Find Out Now & Keep It Secret, suggest. </p>",0,"","",NA,NA,NA,NA,""
"","187721","html-button-response",6,380851,"0.0-5.0-1.0","0","10302","<img src= 'cues/Experiment6.png'></img><p>As seen above, when choosing the <b>'Find Out Now'</b> option, you will receive either a happy face or sad face.</br>The happy face means you will win points after the delay, whereas the sad face means you will receive 0 points.</br></p><p> When choosing the <b> 'Keep it Secret' </b> option you will receive a confused face.</br> This face appears regardless of whether you are going to win points or not. </p>In short, choosing 'Find Out Now' allows you to find out the outcome before you experience it (after the delay).</br></br>",0,"","",NA,NA,NA,NA,""
"","31535","html-button-response",7,412388,"0.0-5.0-2.0","0","10302","<p> There will be <b>four blocks</b> in the experiment.</br>You will be given a short 15 second break between each block.</p><p><b>The points and the options will remain the same between the blocks.</b></p>The blocks are there just to give you a small break.</br></br><p>The points you earn in the task are also equal to <b> actual money</b>.</br> <b>1000 points is equal to $1 USD</b></p><p>This is the rate you will be paid at the experiment's end.",0,"","",NA,NA,NA,NA,""
"","31108","survey-multi-choice",8,443505,"0.0-5.0-3.0","0","10302","",NA,"","{""Q0"":""20 Seconds"",""Q1"":""True"",""Q2"":""True""}",NA,NA,NA,NA,""
"","3894","html-button-response",9,447405,"0.0-6.0","0","10302","<p> The experiment is about to start. <br/> Click start to continue, or email your researcher <b>(j.embrey@unsw.edu.au)</b> if you have any questions before starting.",0,"","",NA,NA,NA,NA,""
"","6465","bandit-task-exp6",10,476337,"0.0-7.0-0.0","0","10302","",NA,"","",1,"0",2,0,"Informative"
"","2169","bandit-task-exp6",11,501840,"0.0-7.0-0.1","0","10302","",NA,"","",2,"1",2,73,"Informative"
"","2146","bandit-task-exp6",12,527158,"0.0-7.0-0.2","0","10302","",NA,"","",3,"1",2,87,"Informative"
"","14959","bandit-task-exp6",13,565978,"0.0-7.0-0.3","0","10302","",NA,"","",4,"0",1,117,"Informative"
"","1511","bandit-task-exp6",14,590476,"0.0-7.0-0.4","0","10302","",NA,"","",5,"1",2,90,"Informative"
"","1671","bandit-task-exp6",15,614578,"0.0-7.0-0.5","0","10302","",NA,"","",6,"1",2,82,"Informative"
"","1081","bandit-task-exp6",16,638618,"0.0-7.0-0.6","0","10302","",NA,"","",7,"1",1,0,"Informative"
"","916","bandit-task-exp6",17,661567,"0.0-7.0-0.7","0","10302","",NA,"","",8,"1",1,0,"Informative"
"","1903","bandit-task-exp6",18,685501,"0.0-7.0-0.8","0","10302","",NA,"","",9,"1",1,0,"Informative"
"","922","bandit-task-exp6",19,708719,"0.0-7.0-0.9","0","10302","",NA,"","",10,"0",1,114,"Informative"
"","3805","bandit-task-exp6",20,734975,"0.0-7.0-0.10","0","10302","",NA,"","",11,"1",2,86,"Informative"
"","781","bandit-task-exp6",21,757697,"0.0-7.0-0.11","0","10302","",NA,"","",12,"1",1,0,"Informative"
"","1330","bandit-task-exp6",22,781882,"0.0-7.0-0.12","0","10302","",NA,"","",13,"0",1,129,"Informative"
"","2326","bandit-task-exp6",23,806656,"0.0-7.0-0.13","0","10302","",NA,"","",14,"0",2,0,"Informative"
"","1262","bandit-task-exp6",24,830400,"0.0-7.0-0.14","0","10302","",NA,"","",15,"0",1,126,"Informative"
"","null","html-keyboard-response",25,845405,"0.0-8.0","0","10302","<p><b> Congratulations, you have finished this block. </b> </p><p>Please take a short break before moving onto the next block.</p><p>The next block will start after a 15 second break.</p><b>Remember, the point rewards are the same between blocks",NA,"null","",NA,NA,NA,NA,""
"","3182","bandit-task-exp6",26,870367,"0.0-9.0-0.0","0","10302","",NA,"","",16,"0",2,0,"Informative"
"","1010","bandit-task-exp6",27,893540,"0.0-9.0-0.1","0","10302","",NA,"","",17,"1",2,83,"Informative"
"","1663","bandit-task-exp6",28,917338,"0.0-9.0-0.2","0","10302","",NA,"","",18,"1",1,0,"Informative"
"","1465","bandit-task-exp6",29,940616,"0.0-9.0-0.3","0","10302","",NA,"","",19,"0",2,0,"Informative"
"","937","bandit-task-exp6",30,963396,"0.0-9.0-0.4","0","10302","",NA,"","",20,"0",2,0,"Informative"
"","1794","bandit-task-exp6",31,986922,"0.0-9.0-0.5","0","10302","",NA,"","",21,"1",1,0,"Informative"
"","1473","bandit-task-exp6",32,1009971,"0.0-9.0-0.6","0","10302","",NA,"","",22,"0",2,0,"Informative"
"","874","bandit-task-exp6",33,1032533,"0.0-9.0-0.7","0","10302","",NA,"","",23,"0",2,0,"Informative"
"","3130","bandit-task-exp6",34,1058865,"0.0-9.0-0.8","0","10302","",NA,"","",24,"0",2,0,"Informative"
"","1823","bandit-task-exp6",35,1082767,"0.0-9.0-0.9","0","10302","",NA,"","",25,"1",2,83,"Informative"
"","1539","bandit-task-exp6",36,1106676,"0.0-9.0-0.10","0","10302","",NA,"","",26,"1",1,0,"Informative"
"","1082","bandit-task-exp6",37,1129607,"0.0-9.0-0.11","0","10302","",NA,"","",27,"1",1,0,"Informative"
"","1551","bandit-task-exp6",38,1153732,"0.0-9.0-0.12","0","10302","",NA,"","",28,"0",2,0,"Informative"
"","1575","bandit-task-exp6",39,1177168,"0.0-9.0-0.13","0","10302","",NA,"","",29,"1",2,78,"Informative"
"","1214","bandit-task-exp6",40,1199886,"0.0-9.0-0.14","0","10302","",NA,"","",30,"0",2,0,"Informative"
"","null","html-keyboard-response",41,1214891,"0.0-10.0","0","10302","<p><b> Congratulations, you have finished this block. </b> </p><p>Please take a short break before moving onto the next block.</p><p>The next block will start after a 15 second break.</p><b>Remember, the point rewards are the same between blocks",NA,"null","",NA,NA,NA,NA,""
"","3106","bandit-task-exp6",42,1240532,"0.0-11.0-0.0","0","10302","",NA,"","",31,"0",1,115,"Informative"
"","1946","bandit-task-exp6",43,1263974,"0.0-11.0-0.1","0","10302","",NA,"","",32,"0",2,0,"Informative"
"","2064","bandit-task-exp6",44,1288173,"0.0-11.0-0.2","0","10302","",NA,"","",33,"1",2,76,"Informative"
"","1885","bandit-task-exp6",45,1312183,"0.0-11.0-0.3","0","10302","",NA,"","",34,"1",2,90,"Informative"
"","2994","bandit-task-exp6",46,1338461,"0.0-11.0-0.4","0","10302","",NA,"","",35,"1",2,80,"Informative"
"","1355","bandit-task-exp6",47,1361437,"0.0-11.0-0.5","0","10302","",NA,"","",36,"1",1,0,"Informative"
"","946","bandit-task-exp6",48,1384091,"0.0-11.0-0.6","0","10302","",NA,"","",37,"1",2,81,"Informative"
"","1630","bandit-task-exp6",49,1407205,"0.0-11.0-0.7","0","10302","",NA,"","",38,"1",2,84,"Informative"
"","1807","bandit-task-exp6",50,1430859,"0.0-11.0-0.8","0","10302","",NA,"","",39,"1",2,84,"Informative"
"","1477","bandit-task-exp6",51,1453829,"0.0-11.0-0.9","0","10302","",NA,"","",40,"0",2,0,"Informative"
"","1518","bandit-task-exp6",52,1477538,"0.0-11.0-0.10","0","10302","",NA,"","",41,"1",1,0,"Informative"
"","1969","bandit-task-exp6",53,1500962,"0.0-11.0-0.11","0","10302","",NA,"","",42,"0",2,0,"Informative"
"","1686","bandit-task-exp6",54,1524576,"0.0-11.0-0.12","0","10302","",NA,"","",43,"1",2,84,"Informative"
"","1942","bandit-task-exp6",55,1548206,"0.0-11.0-0.13","0","10302","",NA,"","",44,"0",1,110,"Informative"
"","2627","bandit-task-exp6",56,1573412,"0.0-11.0-0.14","0","10302","",NA,"","",45,"0",2,0,"Informative"
"","null","html-keyboard-response",57,1588415,"0.0-12.0","0","10302","<p><b> Congratulations, you have finished this block. </b> </p><p>Please take a short break before moving onto the next block.</p><p>The next block will start after a 15 second break.</p><b>Remember, the point rewards are the same between blocks",NA,"null","",NA,NA,NA,NA,""
"","1538","bandit-task-exp6",58,1611384,"0.0-13.0-0.0","0","10302","",NA,"","",46,"1",1,0,"Informative"
"","1066","bandit-task-exp6",59,1633866,"0.0-13.0-0.1","0","10302","",NA,"","",47,"1",1,0,"Informative"
"","2667","bandit-task-exp6",60,1659464,"0.0-13.0-0.2","0","10302","",NA,"","",48,"0",1,129,"Informative"
"","3932","bandit-task-exp6",61,1684886,"0.0-13.0-0.3","0","10302","",NA,"","",49,"1",1,0,"Informative"
"","933","bandit-task-exp6",62,1707381,"0.0-13.0-0.4","0","10302","",NA,"","",50,"1",2,76,"Informative"
"","950","bandit-task-exp6",63,1730184,"0.0-13.0-0.5","0","10302","",NA,"","",51,"1",1,0,"Informative"
"","1365","bandit-task-exp6",64,1753737,"0.0-13.0-0.6","0","10302","",NA,"","",52,"0",1,117,"Informative"
"","2574","bandit-task-exp6",65,1778915,"0.0-13.0-0.7","0","10302","",NA,"","",53,"0",2,0,"Informative"
"","1168","bandit-task-exp6",66,1801988,"0.0-13.0-0.8","0","10302","",NA,"","",54,"0",1,129,"Informative"
"","2137","bandit-task-exp6",67,1825644,"0.0-13.0-0.9","0","10302","",NA,"","",55,"0",1,127,"Informative"
"","3227","bandit-task-exp6",68,1850662,"0.0-13.0-0.10","0","10302","",NA,"","",56,"0",1,115,"Informative"
"","2325","bandit-task-exp6",69,1874413,"0.0-13.0-0.11","0","10302","",NA,"","",57,"1",2,71,"Informative"
"","2269","bandit-task-exp6",70,1898042,"0.0-13.0-0.12","0","10302","",NA,"","",58,"0",2,0,"Informative"
"","2080","bandit-task-exp6",71,1921606,"0.0-13.0-0.13","0","10302","",NA,"","",59,"0",2,0,"Informative"
"","1205","bandit-task-exp6",72,1944768,"0.0-13.0-0.14","0","10302","",NA,"","",60,"1",2,74,"Informative"
"","6658","html-button-response",73,1951430,"0.0-14.0","0","10302","<p> Congratulations, you have finished the main part of the experiment. </p><p>Before you finish, we have a few short questions about the options and outcomes you saw in the task.</p>",0,"","",NA,NA,NA,NA,""
"","34382.534999982454","survey-text",74,1985819,"0.0-15.0","0","10302","",NA,"","{""undefined"":""78""}",NA,NA,NA,NA,""
"","7326.829999976326","survey-text",75,1993152,"0.0-16.0","0","10302","",NA,"","{""undefined"":""110""}",NA,NA,NA,NA,""
"","21328.635000041686","survey-text",76,2014486,"0.0-17.0","0","10302","",NA,"","{""undefined"":""A3PYD7EU2WFST6""}",NA,NA,NA,NA,""
"","17866","html-button-response",77,2032356,"0.0-18.0","0","10302","<p><b>The task is now finished</b></p>Copy the following code:  <b>10302</b></br><p>This is your HIT which you will need to receive payment via mTurk.</p><p><b>Thank you for taking part and completing the experiment!</b></p>",0,"","",NA,NA,NA,NA,""
"[{""page_index"":0,""viewing_time"":39991}]","39993","instructions",0,40003,"0.0-0.0","1","11588","",NA,"","",NA,NA,NA,NA,""
"","154630","html-button-response",1,194647,"0.0-1.0","1","11588","<p>This experiment is now online instead of in-person in a controlled computer lab due to the current COVID-19 pandemic.</br> Please focus on the experiment and refrain from activities such as:</p>- <b>switching to other tabs on your browser (this will be monitored via the experiment)</br> - going on your mobile phone/cell phone</br> - communicating with others</br></br></b><p>This way you are helping to provide data that is useful for psychological research.</p>",0,"","",NA,NA,NA,NA,""
"","2880","html-keyboard-response",2,197535,"0.0-2.0","1","11588","<p>Welcome to the experiment.</p><p>Press the SPACE bar to continue</p>",NA,"32","",NA,NA,NA,NA,""
"","7481.999999959953","survey-text",3,205031,"0.0-3.0","1","11588","",NA,"","{""undefined"":""28""}",NA,NA,NA,NA,""
"","4674","survey-multi-choice",4,209718,"0.0-4.0","1","11588","",NA,"","{""Q0"":""Male""}",NA,NA,NA,NA,""
"","33469","html-button-response",5,243193,"0.0-5.0-0.0","1","11588","<p> On each trial throughout the experiment you will choose between two options </br>a <b>Black Square </b> and <b> Black Triangle </b>, as seen below.</p><div><div style= 'float: left; width: 300px; margin: 10px 10px;'><img src= 'NWTKimg/square.png'></img></div><div style= 'float: right; width: 300px; margin: 10px 10px;'><img src= 'NWTKimg/triangle.png'></img></div></div><br/><br/><br/><br/><br/><br/><br/><br/><br/><br/><br/><p>Each option results in winning points or receiving 0 points.</br></br>There is a 50% chance of either winning or receiving 0 points, but you won't receive the outcome until after a <b> 20 second delay</b>.</p>",0,"","",NA,NA,NA,NA,""
"","27306","html-button-response",6,270505,"0.0-5.0-1.0","1","11588","<img src= 'NWTKimg/NonInfoDiagram.png'></img><p>As seen above, whether you choose the square or triangle, you will receive a coloured circle after the choice. </p> <p>This circle will be on screen for 20 seconds until you win points or receive 0 points.</p><p>The coloured circle depends on which option you chose. </br> In the above example, choosing a triangle leads to a green circle and choosing the square leads to a red circle.</p>Please note, the circles in your task will be different to the above colours.</br></br>",0,"","",NA,NA,NA,NA,""
"","17475","html-button-response",7,287989,"0.0-5.0-2.0","1","11588","<p> There will be <b>four blocks</b> in the experiment.</br>You will be given a short 15 second break between each block.</p><p><b>The points and the options will remain the same between the blocks.</b></p>The blocks are there just to give you a small break.</br></br></br></br><p>The points you earn in the task are also equal to <b> actual money</b>.</br> <b>1000 points is equal to $1 USD</b></p><p>This is the rate you will be paid at the experiment's end.",0,"","",NA,NA,NA,NA,""
"","19927","survey-multi-choice",8,307930,"0.0-5.0-3.0","1","11588","",NA,"","{""Q0"":""20 Seconds"",""Q1"":""False""}",NA,NA,NA,NA,""
"","3773","html-button-response",9,311716,"0.0-5.0-4.0-0.0","1","11588","Unfortunately, at least one of your answers was incorrect.<p> ",0,"","",NA,NA,NA,NA,""
"","7045","html-button-response",10,318775,"0.0-5.1-0.1","1","11588","<p> On each trial throughout the experiment you will choose between two options </br>a <b>Black Square </b> and <b> Black Triangle </b>, as seen below.</p><div><div style= 'float: left; width: 300px; margin: 10px 10px;'><img src= 'NWTKimg/square.png'></img></div><div style= 'float: right; width: 300px; margin: 10px 10px;'><img src= 'NWTKimg/triangle.png'></img></div></div><br/><br/><br/><br/><br/><br/><br/><br/><br/><br/><br/><p>Each option results in winning points or receiving 0 points.</br></br>There is a 50% chance of either winning or receiving 0 points, but you won't receive the outcome until after a <b> 20 second delay</b>.</p>",0,"","",NA,NA,NA,NA,""
"","3149","html-button-response",11,321930,"0.0-5.1-1.1","1","11588","<img src= 'NWTKimg/NonInfoDiagram.png'></img><p>As seen above, whether you choose the square or triangle, you will receive a coloured circle after the choice. </p> <p>This circle will be on screen for 20 seconds until you win points or receive 0 points.</p><p>The coloured circle depends on which option you chose. </br> In the above example, choosing a triangle leads to a green circle and choosing the square leads to a red circle.</p>Please note, the circles in your task will be different to the above colours.</br></br>",0,"","",NA,NA,NA,NA,""
"","2488","html-button-response",12,324424,"0.0-5.1-2.1","1","11588","<p> There will be <b>four blocks</b> in the experiment.</br>You will be given a short 15 second break between each block.</p><p><b>The points and the options will remain the same between the blocks.</b></p>The blocks are there just to give you a small break.</br></br></br></br><p>The points you earn in the task are also equal to <b> actual money</b>.</br> <b>1000 points is equal to $1 USD</b></p><p>This is the rate you will be paid at the experiment's end.",0,"","",NA,NA,NA,NA,""
"","5565","survey-multi-choice",13,330010,"0.0-5.1-3.1","1","11588","",NA,"","{""Q0"":""20 Seconds"",""Q1"":""True""}",NA,NA,NA,NA,""
"","3374","html-button-response",14,333393,"0.0-6.0","1","11588","<p> The experiment is about to start. <br/> Click start to continue, or email your researcher <b>(j.embrey@unsw.edu.au)</b> if you have any questions before starting.",0,"","",NA,NA,NA,NA,""
"","4293","bandit-task-exp6",15,360934,"0.0-7.0-0.0","1","11588","",NA,"","",1,"1",1,0,"NonInfo"
"","10445","bandit-task-exp6",16,395129,"0.0-7.0-0.1","1","11588","",NA,"","",2,"0",1,121,"NonInfo"
"","8264","bandit-task-exp6",17,428088,"0.0-7.0-0.2","1","11588","",NA,"","",3,"1",2,74,"NonInfo"
"","5611","bandit-task-exp6",18,457802,"0.0-7.0-0.3","1","11588","",NA,"","",4,"0",1,128,"NonInfo"
"","3515","bandit-task-exp6",19,485008,"0.0-7.0-0.4","1","11588","",NA,"","",5,"0",2,0,"NonInfo"
"","1991","bandit-task-exp6",20,510388,"0.0-7.0-0.5","1","11588","",NA,"","",6,"1",1,0,"NonInfo"
"","1313","bandit-task-exp6",21,537030,"0.0-7.0-0.6","1","11588","",NA,"","",7,"0",1,127,"NonInfo"
"","8184","bandit-task-exp6",22,567911,"0.0-7.0-0.7","1","11588","",NA,"","",8,"0",2,0,"NonInfo"
"","2148","bandit-task-exp6",23,593131,"0.0-7.0-0.8","1","11588","",NA,"","",9,"1",2,74,"NonInfo"
"","2370","bandit-task-exp6",24,620348,"0.0-7.0-0.9","1","11588","",NA,"","",10,"0",1,128,"NonInfo"
"","5558","bandit-task-exp6",25,648820,"0.0-7.0-0.10","1","11588","",NA,"","",11,"1",1,0,"NonInfo"
"","5721","bandit-task-exp6",26,678684,"0.0-7.0-0.11","1","11588","",NA,"","",12,"0",1,129,"NonInfo"
"","7962","bandit-task-exp6",27,709614,"0.0-7.0-0.12","1","11588","",NA,"","",13,"0",1,129,"NonInfo"
"","7590","bandit-task-exp6",28,741019,"0.0-7.0-0.13","1","11588","",NA,"","",14,"1",2,70,"NonInfo"
"","10675","bandit-task-exp6",29,776348,"0.0-7.0-0.14","1","11588","",NA,"","",15,"0",1,114,"NonInfo"
"","null","html-keyboard-response",30,791357,"0.0-8.0","1","11588","<p><b> Congratulations, you have finished this block. </b> </p><p>Please take a short break before moving onto the next block.</p><p>The next block will start after a 15 second break.</p><b>Remember, the point rewards are the same between blocks",NA,"null","",NA,NA,NA,NA,""
"","5604","bandit-task-exp6",31,819795,"0.0-9.0-0.0","1","11588","",NA,"","",16,"0",2,0,"NonInfo"
"","2029","bandit-task-exp6",32,846201,"0.0-9.0-0.1","1","11588","",NA,"","",17,"0",2,0,"NonInfo"
"","9021","bandit-task-exp6",33,879087,"0.0-9.0-0.2","1","11588","",NA,"","",18,"0",2,0,"NonInfo"
"","6541","bandit-task-exp6",34,907919,"0.0-9.0-0.3","1","11588","",NA,"","",19,"1",1,0,"NonInfo"
"","1590","bandit-task-exp6",35,932594,"0.0-9.0-0.4","1","11588","",NA,"","",20,"1",1,0,"NonInfo"
"","6858","bandit-task-exp6",36,963129,"0.0-9.0-0.5","1","11588","",NA,"","",21,"0",2,0,"NonInfo"
"","3874","bandit-task-exp6",37,990198,"0.0-9.0-0.6","1","11588","",NA,"","",22,"0",1,117,"NonInfo"
"","7023","bandit-task-exp6",38,1022515,"0.0-9.0-0.7","1","11588","",NA,"","",23,"0",1,115,"NonInfo"
"","2470","bandit-task-exp6",39,1049998,"0.0-9.0-0.8","1","11588","",NA,"","",24,"1",2,88,"NonInfo"
"","4216","bandit-task-exp6",40,1078713,"0.0-9.0-0.9","1","11588","",NA,"","",25,"0",2,0,"NonInfo"
"","7092","bandit-task-exp6",41,1110739,"0.0-9.0-0.10","1","11588","",NA,"","",26,"0",1,124,"NonInfo"
"","5990","bandit-task-exp6",42,1140167,"0.0-9.0-0.11","1","11588","",NA,"","",27,"1",1,0,"NonInfo"
"","5965","bandit-task-exp6",43,1172278,"0.0-9.0-0.12","1","11588","",NA,"","",28,"1",2,83,"NonInfo"
"","9110","bandit-task-exp6",44,1207228,"0.0-9.0-0.13","1","11588","",NA,"","",29,"0",1,118,"NonInfo"
"","7238","bandit-task-exp6",45,1240109,"0.0-9.0-0.14","1","11588","",NA,"","",30,"0",1,125,"NonInfo"
"","null","html-keyboard-response",46,1255292,"0.0-10.0","1","11588","<p><b> Congratulations, you have finished this block. </b> </p><p>Please take a short break before moving onto the next block.</p><p>The next block will start after a 15 second break.</p><b>Remember, the point rewards are the same between blocks",NA,"null","",NA,NA,NA,NA,""
"","8594","bandit-task-exp6",47,1286850,"0.0-11.0-0.0","1","11588","",NA,"","",31,"1",1,0,"NonInfo"
"","1372","bandit-task-exp6",48,1310879,"0.0-11.0-0.1","1","11588","",NA,"","",32,"0",2,0,"NonInfo"
"","8907","bandit-task-exp6",49,1343719,"0.0-11.0-0.2","1","11588","",NA,"","",33,"0",2,0,"NonInfo"
"","2094","bandit-task-exp6",50,1369751,"0.0-11.0-0.3","1","11588","",NA,"","",34,"1",2,82,"NonInfo"
"","2468","bandit-task-exp6",51,1395400,"0.0-11.0-0.4","1","11588","",NA,"","",35,"0",2,0,"NonInfo"
"","5215","bandit-task-exp6",52,1424846,"0.0-11.0-0.5","1","11588","",NA,"","",36,"0",1,124,"NonInfo"
"","3275","bandit-task-exp6",53,1452048,"0.0-11.0-0.6","1","11588","",NA,"","",37,"1",2,79,"NonInfo"
"","2536","bandit-task-exp6",54,1478253,"0.0-11.0-0.7","1","11588","",NA,"","",38,"0",1,126,"NonInfo"
"","2233","bandit-task-exp6",55,1504897,"0.0-11.0-0.8","1","11588","",NA,"","",39,"1",2,77,"NonInfo"
"","2641","bandit-task-exp6",56,1531313,"0.0-11.0-0.9","1","11588","",NA,"","",40,"0",2,0,"NonInfo"
"","2614","bandit-task-exp6",57,1557615,"0.0-11.0-0.10","1","11588","",NA,"","",41,"0",2,0,"NonInfo"
"","1524","bandit-task-exp6",58,1584555,"0.0-11.0-0.11","1","11588","",NA,"","",42,"1",2,78,"NonInfo"
"","4428","bandit-task-exp6",59,1614715,"0.0-11.0-0.12","1","11588","",NA,"","",43,"0",1,118,"NonInfo"
"","4683","bandit-task-exp6",60,1646460,"0.0-11.0-0.13","1","11588","",NA,"","",44,"0",1,112,"NonInfo"
"","5946","bandit-task-exp6",61,1677934,"0.0-11.0-0.14","1","11588","",NA,"","",45,"0",1,111,"NonInfo"
"","null","html-keyboard-response",62,1692947,"0.0-12.0","1","11588","<p><b> Congratulations, you have finished this block. </b> </p><p>Please take a short break before moving onto the next block.</p><p>The next block will start after a 15 second break.</p><b>Remember, the point rewards are the same between blocks",NA,"null","",NA,NA,NA,NA,""
"","7120","bandit-task-exp6",63,1724107,"0.0-13.0-0.0","1","11588","",NA,"","",46,"1",1,0,"NonInfo"
"","1805","bandit-task-exp6",64,1750175,"0.0-13.0-0.1","1","11588","",NA,"","",47,"0",1,127,"NonInfo"
"","6116","bandit-task-exp6",65,1782393,"0.0-13.0-0.2","1","11588","",NA,"","",48,"0",1,110,"NonInfo"
"","3445","bandit-task-exp6",66,1811458,"0.0-13.0-0.3","1","11588","",NA,"","",49,"1",2,76,"NonInfo"
"","7470","bandit-task-exp6",67,1845112,"0.0-13.0-0.4","1","11588","",NA,"","",50,"0",1,117,"NonInfo"
"","4720","bandit-task-exp6",68,1873346,"0.0-13.0-0.5","1","11588","",NA,"","",51,"0",1,125,"NonInfo"
"","3551","bandit-task-exp6",69,1901093,"0.0-13.0-0.6","1","11588","",NA,"","",52,"1",2,70,"NonInfo"
"","2972","bandit-task-exp6",70,1929247,"0.0-13.0-0.7","1","11588","",NA,"","",53,"0",1,122,"NonInfo"
"","3727","bandit-task-exp6",71,1956543,"0.0-13.0-0.8","1","11588","",NA,"","",54,"0",2,0,"NonInfo"
"","2091","bandit-task-exp6",72,1982793,"0.0-13.0-0.9","1","11588","",NA,"","",55,"0",1,126,"NonInfo"
"","2736","bandit-task-exp6",73,2009407,"0.0-13.0-0.10","1","11588","",NA,"","",56,"0",2,0,"NonInfo"
"","3483","bandit-task-exp6",74,2037489,"0.0-13.0-0.11","1","11588","",NA,"","",57,"0",2,0,"NonInfo"
"","4921","bandit-task-exp6",75,2066535,"0.0-13.0-0.12","1","11588","",NA,"","",58,"0",1,113,"NonInfo"
"","4442","bandit-task-exp6",76,2095722,"0.0-13.0-0.13","1","11588","",NA,"","",59,"0",2,0,"NonInfo"
"","5785","bandit-task-exp6",77,2127149,"0.0-13.0-0.14","1","11588","",NA,"","",60,"1",2,71,"NonInfo"
"","7851","html-button-response",78,2135008,"0.0-14.0","1","11588","<p> Congratulations, you have finished the main part of the experiment. </p><p>Before you finish, we have a few short questions about the options and outcomes you saw in the task.</p>",0,"","",NA,NA,NA,NA,""
"","34690.000000060536","survey-text",79,2169713,"0.0-15.0","1","11588","",NA,"","{""undefined"":""3724""}",NA,NA,NA,NA,""
"","22516.99999999255","survey-text",80,2192245,"0.0-16.0","1","11588","",NA,"","{""undefined"":""117""}",NA,NA,NA,NA,""
"","13773.999999975786","survey-text",81,2206085,"0.0-17.0","1","11588","",NA,"","{""undefined"":""A1RT70ANYHZ8WY""}",NA,NA,NA,NA,""
"","45335","html-button-response",82,2251429,"0.0-18.0","1","11588","<p><b>The task is now finished</b></p>Copy the following code:  <b>11588</b></br><p>This is your HIT which you will need to receive payment via mTurk.</p><p><b>Thank you for taking part and completing the experiment!</b></p>",0,"","",NA,NA,NA,NA,""
"[{""page_index"":0,""viewing_time"":7459}]","7461","instructions",0,7544,"0.0-0.0","1","13173","",NA,"","",NA,NA,NA,NA,""
"","11770","html-button-response",1,19319,"0.0-1.0","1","13173","<p>This experiment is now online instead of in-person in a controlled computer lab due to the current COVID-19 pandemic.</br> Please focus on the experiment and refrain from activities such as:</p>- <b>switching to other tabs on your browser (this will be monitored via the experiment)</br> - going on your mobile phone/cell phone</br> - communicating with others</br></br></b><p>This way you are helping to provide data that is useful for psychological research.</p>",0,"","",NA,NA,NA,NA,""
"","1676","html-keyboard-response",2,20997,"0.0-2.0","1","13173","<p>Welcome to the experiment.</p><p>Press the SPACE bar to continue</p>",NA,"32","",NA,NA,NA,NA,""
"","2947.5899999997637","survey-text",3,23954,"0.0-3.0","1","13173","",NA,"","{""undefined"":""26""}",NA,NA,NA,NA,""
"","2686","survey-multi-choice",4,26648,"0.0-4.0","1","13173","",NA,"","{""Q0"":""Male""}",NA,NA,NA,NA,""
"","9092","html-button-response",5,35750,"0.0-5.0-0.0","1","13173","<p> On each trial throughout the experiment you will choose between two options </br>a <b>Black Square </b> and <b> Black Triangle </b>, as seen below.</p><div><div style= 'float: left; width: 300px; margin: 10px 10px;'><img src= 'NWTKimg/square.png'></img></div><div style= 'float: right; width: 300px; margin: 10px 10px;'><img src= 'NWTKimg/triangle.png'></img></div></div><br/><br/><br/><br/><br/><br/><br/><br/><br/><br/><br/><p>Each option results in winning points or receiving 0 points.</br></br>There is a 50% chance of either winning or receiving 0 points, but you won't receive the outcome until after a <b> 20 second delay</b>.</p>",0,"","",NA,NA,NA,NA,""
"","20237","html-button-response",6,55990,"0.0-5.0-1.0","1","13173","<img src= 'NWTKimg/NonInfoDiagram.png'></img><p>As seen above, whether you choose the square or triangle, you will receive a coloured circle after the choice. </p> <p>This circle will be on screen for 20 seconds until you win points or receive 0 points.</p><p>The coloured circle depends on which option you chose. </br> In the above example, choosing a triangle leads to a green circle and choosing the square leads to a red circle.</p>Please note, the circles in your task will be different to the above colours.</br></br>",0,"","",NA,NA,NA,NA,""
"","9997","html-button-response",7,65990,"0.0-5.0-2.0","1","13173","<p> There will be <b>four blocks</b> in the experiment.</br>You will be given a short 15 second break between each block.</p><p><b>The points and the options will remain the same between the blocks.</b></p>The blocks are there just to give you a small break.</br></br></br></br><p>The points you earn in the task are also equal to <b> actual money</b>.</br> <b>1000 points is equal to $1 USD</b></p><p>This is the rate you will be paid at the experiment's end.",0,"","",NA,NA,NA,NA,""
"","9105","survey-multi-choice",8,75104,"0.0-5.0-3.0","1","13173","",NA,"","{""Q0"":""20 Seconds"",""Q1"":""True""}",NA,NA,NA,NA,""
"","1955","html-button-response",9,77070,"0.0-6.0","1","13173","<p> The experiment is about to start. <br/> Click start to continue, or email your researcher <b>(j.embrey@unsw.edu.au)</b> if you have any questions before starting.",0,"","",NA,NA,NA,NA,""
"","2577","bandit-task-exp6",10,102326,"0.0-7.0-0.0","1","13173","",NA,"","",1,"0",1,129,"NonInfo"
"","2009","bandit-task-exp6",11,127302,"0.0-7.0-0.1","1","13173","",NA,"","",2,"0",2,0,"NonInfo"
"","1225","bandit-task-exp6",12,151222,"0.0-7.0-0.2","1","13173","",NA,"","",3,"1",2,75,"NonInfo"
"","1959","bandit-task-exp6",13,175629,"0.0-7.0-0.3","1","13173","",NA,"","",4,"1",1,0,"NonInfo"
"","976","bandit-task-exp6",14,199357,"0.0-7.0-0.4","1","13173","",NA,"","",5,"1",2,84,"NonInfo"
"","1978","bandit-task-exp6",15,223756,"0.0-7.0-0.5","1","13173","",NA,"","",6,"0",2,0,"NonInfo"
"","1419","bandit-task-exp6",16,247660,"0.0-7.0-0.6","1","13173","",NA,"","",7,"1",1,0,"NonInfo"
"","1103","bandit-task-exp6",17,270868,"0.0-7.0-0.7","1","13173","",NA,"","",8,"1",1,0,"NonInfo"
"","882","bandit-task-exp6",18,293915,"0.0-7.0-0.8","1","13173","",NA,"","",9,"1",2,70,"NonInfo"
"","1328","bandit-task-exp6",19,317787,"0.0-7.0-0.9","1","13173","",NA,"","",10,"1",2,89,"NonInfo"
"","878","bandit-task-exp6",20,342076,"0.0-7.0-0.10","1","13173","",NA,"","",11,"1",2,90,"NonInfo"
"","1110","bandit-task-exp6",21,366970,"0.0-7.0-0.11","1","13173","",NA,"","",12,"1",1,0,"NonInfo"
"","2530","bandit-task-exp6",22,391626,"0.0-7.0-0.12","1","13173","",NA,"","",13,"1",1,0,"NonInfo"
"","1152","bandit-task-exp6",23,417921,"0.0-7.0-0.13","1","13173","",NA,"","",14,"1",2,75,"NonInfo"
"","2266","bandit-task-exp6",24,442402,"0.0-7.0-0.14","1","13173","",NA,"","",15,"1",2,89,"NonInfo"
"","null","html-keyboard-response",25,457407,"0.0-8.0","1","13173","<p><b> Congratulations, you have finished this block. </b> </p><p>Please take a short break before moving onto the next block.</p><p>The next block will start after a 15 second break.</p><b>Remember, the point rewards are the same between blocks",NA,"null","",NA,NA,NA,NA,""
"","1589","bandit-task-exp6",26,481233,"0.0-9.0-0.0","1","13173","",NA,"","",16,"1",2,78,"NonInfo"
"","2210","bandit-task-exp6",27,505784,"0.0-9.0-0.1","1","13173","",NA,"","",17,"1",2,87,"NonInfo"
"","1169","bandit-task-exp6",28,530648,"0.0-9.0-0.2","1","13173","",NA,"","",18,"1",1,0,"NonInfo"
"","1034","bandit-task-exp6",29,555032,"0.0-9.0-0.3","1","13173","",NA,"","",19,"1",2,87,"NonInfo"
"","1515","bandit-task-exp6",30,581096,"0.0-9.0-0.4","1","13173","",NA,"","",20,"1",1,0,"NonInfo"
"","1361","bandit-task-exp6",31,605087,"0.0-9.0-0.5","1","13173","",NA,"","",21,"1",2,86,"NonInfo"
"","1681","bandit-task-exp6",32,629143,"0.0-9.0-0.6","1","13173","",NA,"","",22,"1",2,81,"NonInfo"
"","2555","bandit-task-exp6",33,658774,"0.0-9.0-0.7","1","13173","",NA,"","",23,"1",2,79,"NonInfo"
"","1498","bandit-task-exp6",34,683543,"0.0-9.0-0.8","1","13173","",NA,"","",24,"1",1,0,"NonInfo"
"","1210","bandit-task-exp6",35,709199,"0.0-9.0-0.9","1","13173","",NA,"","",25,"1",1,0,"NonInfo"
"","1160","bandit-task-exp6",36,732598,"0.0-9.0-0.10","1","13173","",NA,"","",26,"1",2,75,"NonInfo"
"","1056","bandit-task-exp6",37,756758,"0.0-9.0-0.11","1","13173","",NA,"","",27,"1",2,78,"NonInfo"
"","2361","bandit-task-exp6",38,781318,"0.0-9.0-0.12","1","13173","",NA,"","",28,"1",1,0,"NonInfo"
"","688","bandit-task-exp6",39,804550,"0.0-9.0-0.13","1","13173","",NA,"","",29,"1",2,80,"NonInfo"
"","736","bandit-task-exp6",40,828293,"0.0-9.0-0.14","1","13173","",NA,"","",30,"1",1,0,"NonInfo"
"","null","html-keyboard-response",41,843297,"0.0-10.0","1","13173","<p><b> Congratulations, you have finished this block. </b> </p><p>Please take a short break before moving onto the next block.</p><p>The next block will start after a 15 second break.</p><b>Remember, the point rewards are the same between blocks",NA,"null","",NA,NA,NA,NA,""
"","2381","bandit-task-exp6",42,868245,"0.0-11.0-0.0","1","13173","",NA,"","",31,"1",1,0,"NonInfo"
"","1264","bandit-task-exp6",43,892532,"0.0-11.0-0.1","1","13173","",NA,"","",32,"1",2,70,"NonInfo"
"","706","bandit-task-exp6",44,916483,"0.0-11.0-0.2","1","13173","",NA,"","",33,"1",2,74,"NonInfo"
"","1147","bandit-task-exp6",45,939764,"0.0-11.0-0.3","1","13173","",NA,"","",34,"1",1,0,"NonInfo"
"","632","bandit-task-exp6",46,962635,"0.0-11.0-0.4","1","13173","",NA,"","",35,"1",1,0,"NonInfo"
"","809","bandit-task-exp6",47,986058,"0.0-11.0-0.5","1","13173","",NA,"","",36,"1",1,0,"NonInfo"
"","690","bandit-task-exp6",48,1008714,"0.0-11.0-0.6","1","13173","",NA,"","",37,"1",1,0,"NonInfo"
"","994","bandit-task-exp6",49,1031722,"0.0-11.0-0.7","1","13173","",NA,"","",38,"1",1,0,"NonInfo"
"","2137","bandit-task-exp6",50,1056282,"0.0-11.0-0.8","1","13173","",NA,"","",39,"0",2,0,"NonInfo"
"","1009","bandit-task-exp6",51,1080426,"0.0-11.0-0.9","1","13173","",NA,"","",40,"1",2,81,"NonInfo"
"","738","bandit-task-exp6",52,1104322,"0.0-11.0-0.10","1","13173","",NA,"","",41,"1",1,0,"NonInfo"
"","690","bandit-task-exp6",53,1127393,"0.0-11.0-0.11","1","13173","",NA,"","",42,"1",2,88,"NonInfo"
"","609","bandit-task-exp6",54,1150746,"0.0-11.0-0.12","1","13173","",NA,"","",43,"1",1,0,"NonInfo"
"","1087","bandit-task-exp6",55,1174632,"0.0-11.0-0.13","1","13173","",NA,"","",44,"1",2,85,"NonInfo"
"","785","bandit-task-exp6",56,1197560,"0.0-11.0-0.14","1","13173","",NA,"","",45,"1",2,76,"NonInfo"
"","null","html-keyboard-response",57,1212563,"0.0-12.0","1","13173","<p><b> Congratulations, you have finished this block. </b> </p><p>Please take a short break before moving onto the next block.</p><p>The next block will start after a 15 second break.</p><b>Remember, the point rewards are the same between blocks",NA,"null","",NA,NA,NA,NA,""
"","1869","bandit-task-exp6",58,1237105,"0.0-13.0-0.0","1","13173","",NA,"","",46,"1",2,72,"NonInfo"
"","718","bandit-task-exp6",59,1259761,"0.0-13.0-0.1","1","13173","",NA,"","",47,"1",1,0,"NonInfo"
"","636","bandit-task-exp6",60,1281984,"0.0-13.0-0.2","1","13173","",NA,"","",48,"1",1,0,"NonInfo"
"","544","bandit-task-exp6",61,1304408,"0.0-13.0-0.3","1","13173","",NA,"","",49,"1",2,85,"NonInfo"
"","1327","bandit-task-exp6",62,1327815,"0.0-13.0-0.4","1","13173","",NA,"","",50,"1",2,84,"NonInfo"
"","1416","bandit-task-exp6",63,1351535,"0.0-13.0-0.5","1","13173","",NA,"","",51,"1",2,78,"NonInfo"
"","1467","bandit-task-exp6",64,1375454,"0.0-13.0-0.6","1","13173","",NA,"","",52,"1",1,0,"NonInfo"
"","872","bandit-task-exp6",65,1398542,"0.0-13.0-0.7","1","13173","",NA,"","",53,"1",2,83,"NonInfo"
"","849","bandit-task-exp6",66,1422477,"0.0-13.0-0.8","1","13173","",NA,"","",54,"1",2,90,"NonInfo"
"","1042","bandit-task-exp6",67,1455533,"0.0-13.0-0.9","1","13173","",NA,"","",55,"1",2,86,"NonInfo"
"","754","bandit-task-exp6",68,1479708,"0.0-13.0-0.10","1","13173","",NA,"","",56,"1",1,0,"NonInfo"
"","1185","bandit-task-exp6",69,1504253,"0.0-13.0-0.11","1","13173","",NA,"","",57,"1",1,0,"NonInfo"
"","799","bandit-task-exp6",70,1528117,"0.0-13.0-0.12","1","13173","",NA,"","",58,"1",2,84,"NonInfo"
"","568","bandit-task-exp6",71,1551229,"0.0-13.0-0.13","1","13173","",NA,"","",59,"1",1,0,"NonInfo"
"","969","bandit-task-exp6",72,1575092,"0.0-13.0-0.14","1","13173","",NA,"","",60,"1",1,0,"NonInfo"
"","2516","html-button-response",73,1577611,"0.0-14.0","1","13173","<p> Congratulations, you have finished the main part of the experiment. </p><p>Before you finish, we have a few short questions about the options and outcomes you saw in the task.</p>",0,"","",NA,NA,NA,NA,""
"","21880.32999999984","survey-text",74,1599500,"0.0-15.0","1","13173","",NA,"","{""undefined"":""80""}",NA,NA,NA,NA,""
"","6214.455000001239","survey-text",75,1605724,"0.0-16.0","1","13173","",NA,"","{""undefined"":""80""}",NA,NA,NA,NA,""
"","11605.049999998184","survey-text",76,1617339,"0.0-17.0","1","13173","",NA,"","{""undefined"":""A12VDN3TJJCAQQ""}",NA,NA,NA,NA,""
"","4667","html-button-response",77,1622011,"0.0-18.0","1","13173","<p><b>The task is now finished</b></p>Copy the following code:  <b>13173</b></br><p>This is your HIT which you will need to receive payment via mTurk.</p><p><b>Thank you for taking part and completing the experiment!</b></p>",0,"","",NA,NA,NA,NA,""
"[{""page_index"":0,""viewing_time"":11647}]","11648","instructions",0,11655,"0.0-0.0","0","14019","",NA,"","",NA,NA,NA,NA,""
"","15395","html-button-response",1,27055,"0.0-1.0","0","14019","<p>This experiment is now online instead of in-person in a controlled computer lab due to the current COVID-19 pandemic.</br> Please focus on the experiment and refrain from activities such as:</p>- <b>switching to other tabs on your browser (this will be monitored via the experiment)</br> - going on your mobile phone/cell phone</br> - communicating with others</br></br></b><p>This way you are helping to provide data that is useful for psychological research.</p>",0,"","",NA,NA,NA,NA,""
"","1987","html-keyboard-response",2,29045,"0.0-2.0","0","14019","<p>Welcome to the experiment.</p><p>Press the SPACE bar to continue</p>",NA,"32","",NA,NA,NA,NA,""
"","3033.7750000180677","survey-text",3,32087,"0.0-3.0","0","14019","",NA,"","{""undefined"":""30""}",NA,NA,NA,NA,""
"","1611","survey-multi-choice",4,33702,"0.0-4.0","0","14019","",NA,"","{""Q0"":""Female""}",NA,NA,NA,NA,""
"","29837","html-button-response",5,63542,"0.0-5.0-0.0","0","14019","<p> On each trial throughout the experiment you will choose between the options </br><b> Find Out Now </b> and <b> Keep It Secret </b>, as seen below.</p><div><div style= 'float: left; width: 300px; margin: 10px 10px;'><img src= 'NWTKimg/KeepItSecret.jpg'></img></div><div style= 'float: right; width: 300px; margin: 10px 10px;'><img src= 'NWTKimg/FindOutNow.jpg'></img></div></div><br/><br/><br/><br/><br/><br/><br/><br/><br/><br/><br/><p>Each option results in winning points or receiving 0 points.</br>There is a 50% chance of either winning or receiving 0 points, but you won't receive the outcome until after a <b> 20 second delay</b>.</p><p>You can however gain information about the outcome as the two options, Find Out Now & Keep It Secret, suggest. </p>",0,"","",NA,NA,NA,NA,""
"","24301","html-button-response",6,87845,"0.0-5.0-1.0","0","14019","<img src= 'cues/Experiment6.png'></img><p>As seen above, when choosing the <b>'Find Out Now'</b> option, you will receive either a happy face or sad face.</br>The happy face means you will win points after the delay, whereas the sad face means you will receive 0 points.</br></p><p> When choosing the <b> 'Keep it Secret' </b> option you will receive a confused face.</br> This face appears regardless of whether you are going to win points or not. </p>In short, choosing 'Find Out Now' allows you to find out the outcome before you experience it (after the delay).</br></br>",0,"","",NA,NA,NA,NA,""
"","16062","html-button-response",7,103910,"0.0-5.0-2.0","0","14019","<p> There will be <b>four blocks</b> in the experiment.</br>You will be given a short 15 second break between each block.</p><p><b>The points and the options will remain the same between the blocks.</b></p>The blocks are there just to give you a small break.</br></br><p>The points you earn in the task are also equal to <b> actual money</b>.</br> <b>1000 points is equal to $1 USD</b></p><p>This is the rate you will be paid at the experiment's end.",0,"","",NA,NA,NA,NA,""
"","11323","survey-multi-choice",8,115238,"0.0-5.0-3.0","0","14019","",NA,"","{""Q0"":""20 Seconds"",""Q1"":""True"",""Q2"":""True""}",NA,NA,NA,NA,""
"","2252","html-button-response",9,117493,"0.0-6.0","0","14019","<p> The experiment is about to start. <br/> Click start to continue, or email your researcher <b>(j.embrey@unsw.edu.au)</b> if you have any questions before starting.",0,"","",NA,NA,NA,NA,""
"","2841","bandit-task-exp6",10,143038,"0.0-7.0-0.0","0","14019","",NA,"","",1,"1",1,0,"Informative"
"","5139","bandit-task-exp6",11,170494,"0.0-7.0-0.1","0","14019","",NA,"","",2,"1",2,76,"Informative"
"","1540","bandit-task-exp6",12,194254,"0.0-7.0-0.2","0","14019","",NA,"","",3,"0",2,0,"Informative"
"","1140","bandit-task-exp6",13,217381,"0.0-7.0-0.3","0","14019","",NA,"","",4,"1",2,90,"Informative"
"","739","bandit-task-exp6",14,240093,"0.0-7.0-0.4","0","14019","",NA,"","",5,"0",2,0,"Informative"
"","1324","bandit-task-exp6",15,263670,"0.0-7.0-0.5","0","14019","",NA,"","",6,"0",2,0,"Informative"
"","1619","bandit-task-exp6",16,287766,"0.0-7.0-0.6","0","14019","",NA,"","",7,"1",2,81,"Informative"
"","1395","bandit-task-exp6",17,311310,"0.0-7.0-0.7","0","14019","",NA,"","",8,"1",2,82,"Informative"
"","1572","bandit-task-exp6",18,335030,"0.0-7.0-0.8","0","14019","",NA,"","",9,"1",1,0,"Informative"
"","963","bandit-task-exp6",19,358278,"0.0-7.0-0.9","0","14019","",NA,"","",10,"1",1,0,"Informative"
"","1712","bandit-task-exp6",20,383069,"0.0-7.0-0.10","0","14019","",NA,"","",11,"0",1,115,"Informative"
"","2355","bandit-task-exp6",21,407557,"0.0-7.0-0.11","0","14019","",NA,"","",12,"0",2,0,"Informative"
"","1084","bandit-task-exp6",22,431005,"0.0-7.0-0.12","0","14019","",NA,"","",13,"0",1,117,"Informative"
"","1547","bandit-task-exp6",23,454510,"0.0-7.0-0.13","0","14019","",NA,"","",14,"0",2,0,"Informative"
"","1100","bandit-task-exp6",24,477733,"0.0-7.0-0.14","0","14019","",NA,"","",15,"0",1,123,"Informative"
"","null","html-keyboard-response",25,492737,"0.0-8.0","0","14019","<p><b> Congratulations, you have finished this block. </b> </p><p>Please take a short break before moving onto the next block.</p><p>The next block will start after a 15 second break.</p><b>Remember, the point rewards are the same between blocks",NA,"null","",NA,NA,NA,NA,""
"","1991","bandit-task-exp6",26,516845,"0.0-9.0-0.0","0","14019","",NA,"","",16,"0",2,0,"Informative"
"","2370","bandit-task-exp6",27,541422,"0.0-9.0-0.1","0","14019","",NA,"","",17,"1",1,0,"Informative"
"","1379","bandit-task-exp6",28,565013,"0.0-9.0-0.2","0","14019","",NA,"","",18,"1",2,90,"Informative"
"","1923","bandit-task-exp6",29,588797,"0.0-9.0-0.3","0","14019","",NA,"","",19,"1",1,0,"Informative"
"","1867","bandit-task-exp6",30,612757,"0.0-9.0-0.4","0","14019","",NA,"","",20,"0",1,114,"Informative"
"","1060","bandit-task-exp6",31,636477,"0.0-9.0-0.5","0","14019","",NA,"","",21,"0",1,119,"Informative"
"","1252","bandit-task-exp6",32,659677,"0.0-9.0-0.6","0","14019","",NA,"","",22,"0",2,0,"Informative"
"","1691","bandit-task-exp6",33,683461,"0.0-9.0-0.7","0","14019","",NA,"","",23,"0",1,125,"Informative"
"","1219","bandit-task-exp6",34,706669,"0.0-9.0-0.8","0","14019","",NA,"","",24,"0",1,112,"Informative"
"","644","bandit-task-exp6",35,729445,"0.0-9.0-0.9","0","14019","",NA,"","",25,"1",1,0,"Informative"
"","1140","bandit-task-exp6",36,752517,"0.0-9.0-0.10","0","14019","",NA,"","",26,"0",2,0,"Informative"
"","1155","bandit-task-exp6",37,776685,"0.0-9.0-0.11","0","14019","",NA,"","",27,"0",2,0,"Informative"
"","1156","bandit-task-exp6",38,799805,"0.0-9.0-0.12","0","14019","",NA,"","",28,"0",2,0,"Informative"
"","1011","bandit-task-exp6",39,823030,"0.0-9.0-0.13","0","14019","",NA,"","",29,"0",1,113,"Informative"
"","1370","bandit-task-exp6",40,847276,"0.0-9.0-0.14","0","14019","",NA,"","",30,"0",2,0,"Informative"
"","null","html-keyboard-response",41,862281,"0.0-10.0","0","14019","<p><b> Congratulations, you have finished this block. </b> </p><p>Please take a short break before moving onto the next block.</p><p>The next block will start after a 15 second break.</p><b>Remember, the point rewards are the same between blocks",NA,"null","",NA,NA,NA,NA,""
"","1432","bandit-task-exp6",42,886173,"0.0-11.0-0.0","0","14019","",NA,"","",31,"0",1,129,"Informative"
"","1515","bandit-task-exp6",43,909934,"0.0-11.0-0.1","0","14019","",NA,"","",32,"0",1,118,"Informative"
"","1139","bandit-task-exp6",44,933077,"0.0-11.0-0.2","0","14019","",NA,"","",33,"0",2,0,"Informative"
"","868","bandit-task-exp6",45,956005,"0.0-11.0-0.3","0","14019","",NA,"","",34,"0",2,0,"Informative"
"","1092","bandit-task-exp6",46,979229,"0.0-11.0-0.4","0","14019","",NA,"","",35,"0",2,0,"Informative"
"","1291","bandit-task-exp6",47,1002789,"0.0-11.0-0.5","0","14019","",NA,"","",36,"0",1,116,"Informative"
"","1052","bandit-task-exp6",48,1026269,"0.0-11.0-0.6","0","14019","",NA,"","",37,"0",2,0,"Informative"
"","2243","bandit-task-exp6",49,1050708,"0.0-11.0-0.7","0","14019","",NA,"","",38,"1",1,0,"Informative"
"","1284","bandit-task-exp6",50,1074525,"0.0-11.0-0.8","0","14019","",NA,"","",39,"1",1,0,"Informative"
"","1243","bandit-task-exp6",51,1097949,"0.0-11.0-0.9","0","14019","",NA,"","",40,"0",1,129,"Informative"
"","1452","bandit-task-exp6",52,1121780,"0.0-11.0-0.10","0","14019","",NA,"","",41,"0",2,0,"Informative"
"","1028","bandit-task-exp6",53,1144845,"0.0-11.0-0.11","0","14019","",NA,"","",42,"0",1,130,"Informative"
"","1138","bandit-task-exp6",54,1168116,"0.0-11.0-0.12","0","14019","",NA,"","",43,"0",1,112,"Informative"
"","1508","bandit-task-exp6",55,1191716,"0.0-11.0-0.13","0","14019","",NA,"","",44,"0",1,127,"Informative"
"","1411","bandit-task-exp6",56,1215316,"0.0-11.0-0.14","0","14019","",NA,"","",45,"0",2,0,"Informative"
"","null","html-keyboard-response",57,1230318,"0.0-12.0","0","14019","<p><b> Congratulations, you have finished this block. </b> </p><p>Please take a short break before moving onto the next block.</p><p>The next block will start after a 15 second break.</p><b>Remember, the point rewards are the same between blocks",NA,"null","",NA,NA,NA,NA,""
"","3625","bandit-task-exp6",58,1256244,"0.0-13.0-0.0","0","14019","",NA,"","",46,"0",1,125,"Informative"
"","980","bandit-task-exp6",59,1279612,"0.0-13.0-0.1","0","14019","",NA,"","",47,"0",2,0,"Informative"
"","3324","bandit-task-exp6",60,1306020,"0.0-13.0-0.2","0","14019","",NA,"","",48,"0",2,0,"Informative"
"","3196","bandit-task-exp6",61,1331731,"0.0-13.0-0.3","0","14019","",NA,"","",49,"0",1,114,"Informative"
"","1163","bandit-task-exp6",62,1355316,"0.0-13.0-0.4","0","14019","",NA,"","",50,"0",1,124,"Informative"
"","1347","bandit-task-exp6",63,1380525,"0.0-13.0-0.5","0","14019","",NA,"","",51,"0",2,0,"Informative"
"","2626","bandit-task-exp6",64,1405509,"0.0-13.0-0.6","0","14019","",NA,"","",52,"0",1,115,"Informative"
"","1490","bandit-task-exp6",65,1429101,"0.0-13.0-0.7","0","14019","",NA,"","",53,"0",1,110,"Informative"
"","1986","bandit-task-exp6",66,1453980,"0.0-13.0-0.8","0","14019","",NA,"","",54,"0",2,0,"Informative"
"","1452","bandit-task-exp6",67,1477845,"0.0-13.0-0.9","0","14019","",NA,"","",55,"0",1,127,"Informative"
"","1146","bandit-task-exp6",68,1501508,"0.0-13.0-0.10","0","14019","",NA,"","",56,"0",2,0,"Informative"
"","1345","bandit-task-exp6",69,1524797,"0.0-13.0-0.11","0","14019","",NA,"","",57,"0",2,0,"Informative"
"","1522","bandit-task-exp6",70,1548899,"0.0-13.0-0.12","0","14019","",NA,"","",58,"0",1,121,"Informative"
"","1643","bandit-task-exp6",71,1572852,"0.0-13.0-0.13","0","14019","",NA,"","",59,"0",1,111,"Informative"
"","1675","bandit-task-exp6",72,1597067,"0.0-13.0-0.14","0","14019","",NA,"","",60,"0",2,0,"Informative"
"","2405","html-button-response",73,1599476,"0.0-14.0","0","14019","<p> Congratulations, you have finished the main part of the experiment. </p><p>Before you finish, we have a few short questions about the options and outcomes you saw in the task.</p>",0,"","",NA,NA,NA,NA,""
"","18770.65500000026","survey-text",74,1618251,"0.0-15.0","0","14019","",NA,"","{""undefined"":""120""}",NA,NA,NA,NA,""
"","4412.21000009682","survey-text",75,1622669,"0.0-16.0","0","14019","",NA,"","{""undefined"":""115""}",NA,NA,NA,NA,""
"","6147.059999988414","survey-text",76,1628822,"0.0-17.0","0","14019","",NA,"","{""undefined"":""AQ9Y6WD8O72ZC""}",NA,NA,NA,NA,""
"","14518","html-button-response",77,1643343,"0.0-18.0","0","14019","<p><b>The task is now finished</b></p>Copy the following code:  <b>14019</b></br><p>This is your HIT which you will need to receive payment via mTurk.</p><p><b>Thank you for taking part and completing the experiment!</b></p>",0,"","",NA,NA,NA,NA,""
"[{""page_index"":0,""viewing_time"":20820}]","20823","instructions",0,20845,"0.0-0.0","1","16902","",NA,"","",NA,NA,NA,NA,""
"","52067","html-button-response",1,72924,"0.0-1.0","1","16902","<p>This experiment is now online instead of in-person in a controlled computer lab due to the current COVID-19 pandemic.</br> Please focus on the experiment and refrain from activities such as:</p>- <b>switching to other tabs on your browser (this will be monitored via the experiment)</br> - going on your mobile phone/cell phone</br> - communicating with others</br></br></b><p>This way you are helping to provide data that is useful for psychological research.</p>",0,"","",NA,NA,NA,NA,""
"","2145","html-keyboard-response",2,75077,"0.0-2.0","1","16902","<p>Welcome to the experiment.</p><p>Press the SPACE bar to continue</p>",NA,"32","",NA,NA,NA,NA,""
"","3090.139999985695","survey-text",3,78184,"0.0-3.0","1","16902","",NA,"","{""undefined"":""26""}",NA,NA,NA,NA,""
"","2213","survey-multi-choice",4,80413,"0.0-4.0","1","16902","",NA,"","{""Q0"":""Female""}",NA,NA,NA,NA,""
"","90141","html-button-response",5,170565,"0.0-5.0-0.0","1","16902","<p> On each trial throughout the experiment you will choose between two options </br>a <b>Black Square </b> and <b> Black Triangle </b>, as seen below.</p><div><div style= 'float: left; width: 300px; margin: 10px 10px;'><img src= 'NWTKimg/square.png'></img></div><div style= 'float: right; width: 300px; margin: 10px 10px;'><img src= 'NWTKimg/triangle.png'></img></div></div><br/><br/><br/><br/><br/><br/><br/><br/><br/><br/><br/><p>Each option results in winning points or receiving 0 points.</br></br>There is a 50% chance of either winning or receiving 0 points, but you won't receive the outcome until after a <b> 20 second delay</b>.</p>",0,"","",NA,NA,NA,NA,""
"","132106","html-button-response",6,302681,"0.0-5.0-1.0","1","16902","<img src= 'NWTKimg/NonInfoDiagram.png'></img><p>As seen above, whether you choose the square or triangle, you will receive a coloured circle after the choice. </p> <p>This circle will be on screen for 20 seconds until you win points or receive 0 points.</p><p>The coloured circle depends on which option you chose. </br> In the above example, choosing a triangle leads to a green circle and choosing the square leads to a red circle.</p>Please note, the circles in your task will be different to the above colours.</br></br>",0,"","",NA,NA,NA,NA,""
"","12913","html-button-response",7,315604,"0.0-5.0-2.0","1","16902","<p> There will be <b>four blocks</b> in the experiment.</br>You will be given a short 15 second break between each block.</p><p><b>The points and the options will remain the same between the blocks.</b></p>The blocks are there just to give you a small break.</br></br></br></br><p>The points you earn in the task are also equal to <b> actual money</b>.</br> <b>1000 points is equal to $1 USD</b></p><p>This is the rate you will be paid at the experiment's end.",0,"","",NA,NA,NA,NA,""
"","2742","survey-multi-choice",8,318364,"0.0-5.0-3.0","1","16902","",NA,"","{""Q0"":""20 Seconds"",""Q1"":""True""}",NA,NA,NA,NA,""
"","909","html-button-response",9,319284,"0.0-6.0","1","16902","<p> The experiment is about to start. <br/> Click start to continue, or email your researcher <b>(j.embrey@unsw.edu.au)</b> if you have any questions before starting.",0,"","",NA,NA,NA,NA,""
"","994","bandit-task-exp6",10,342405,"0.0-7.0-0.0","1","16902","",NA,"","",1,"1",2,88,"NonInfo"
"","962","bandit-task-exp6",11,365749,"0.0-7.0-0.1","1","16902","",NA,"","",2,"0",1,124,"NonInfo"
"","1173","bandit-task-exp6",12,389203,"0.0-7.0-0.2","1","16902","",NA,"","",3,"0",2,0,"NonInfo"
"","572","bandit-task-exp6",13,412189,"0.0-7.0-0.3","1","16902","",NA,"","",4,"1",1,0,"NonInfo"
"","927","bandit-task-exp6",14,437012,"0.0-7.0-0.4","1","16902","",NA,"","",5,"1",1,0,"NonInfo"
"","678","bandit-task-exp6",15,463029,"0.0-7.0-0.5","1","16902","",NA,"","",6,"0",1,130,"NonInfo"
"","653","bandit-task-exp6",16,485962,"0.0-7.0-0.6","1","16902","",NA,"","",7,"0",2,0,"NonInfo"
"","1794","bandit-task-exp6",17,510067,"0.0-7.0-0.7","1","16902","",NA,"","",8,"0",1,127,"NonInfo"
"","717","bandit-task-exp6",18,533567,"0.0-7.0-0.8","1","16902","",NA,"","",9,"0",1,114,"NonInfo"
"","1127","bandit-task-exp6",19,557344,"0.0-7.0-0.9","1","16902","",NA,"","",10,"0",2,0,"NonInfo"
"","901","bandit-task-exp6",20,580287,"0.0-7.0-0.10","1","16902","",NA,"","",11,"1",1,0,"NonInfo"
"","566","bandit-task-exp6",21,603877,"0.0-7.0-0.11","1","16902","",NA,"","",12,"0",1,128,"NonInfo"
"","1319","bandit-task-exp6",22,632308,"0.0-7.0-0.12","1","16902","",NA,"","",13,"0",1,114,"NonInfo"
"","1544","bandit-task-exp6",23,655963,"0.0-7.0-0.13","1","16902","",NA,"","",14,"0",1,124,"NonInfo"
"","4154","bandit-task-exp6",24,682132,"0.0-7.0-0.14","1","16902","",NA,"","",15,"0",1,127,"NonInfo"
"","null","html-keyboard-response",25,697205,"0.0-8.0","1","16902","<p><b> Congratulations, you have finished this block. </b> </p><p>Please take a short break before moving onto the next block.</p><p>The next block will start after a 15 second break.</p><b>Remember, the point rewards are the same between blocks",NA,"null","",NA,NA,NA,NA,""
"","1237","bandit-task-exp6",26,724845,"0.0-9.0-0.0","1","16902","",NA,"","",16,"1",1,0,"NonInfo"
"","573","bandit-task-exp6",27,747628,"0.0-9.0-0.1","1","16902","",NA,"","",17,"0",2,0,"NonInfo"
"","514","bandit-task-exp6",28,770266,"0.0-9.0-0.2","1","16902","",NA,"","",18,"1",2,70,"NonInfo"
"","559","bandit-task-exp6",29,792865,"0.0-9.0-0.3","1","16902","",NA,"","",19,"1",1,0,"NonInfo"
"","815","bandit-task-exp6",30,815740,"0.0-9.0-0.4","1","16902","",NA,"","",20,"1",1,0,"NonInfo"
"","466","bandit-task-exp6",31,838317,"0.0-9.0-0.5","1","16902","",NA,"","",21,"1",1,0,"NonInfo"
"","473","bandit-task-exp6",32,861363,"0.0-9.0-0.6","1","16902","",NA,"","",22,"0",2,0,"NonInfo"
"","830","bandit-task-exp6",33,889376,"0.0-9.0-0.7","1","16902","",NA,"","",23,"1",2,77,"NonInfo"
"","555","bandit-task-exp6",34,921681,"0.0-9.0-0.8","1","16902","",NA,"","",24,"0",2,0,"NonInfo"
"","503","bandit-task-exp6",35,944171,"0.0-9.0-0.9","1","16902","",NA,"","",25,"1",1,0,"NonInfo"
"","629","bandit-task-exp6",36,966954,"0.0-9.0-0.10","1","16902","",NA,"","",26,"0",1,119,"NonInfo"
"","609","bandit-task-exp6",37,989733,"0.0-9.0-0.11","1","16902","",NA,"","",27,"0",1,125,"NonInfo"
"","496","bandit-task-exp6",38,1014532,"0.0-9.0-0.12","1","16902","",NA,"","",28,"1",1,0,"NonInfo"
"","598","bandit-task-exp6",39,1038295,"0.0-9.0-0.13","1","16902","",NA,"","",29,"0",2,0,"NonInfo"
"","512","bandit-task-exp6",40,1063789,"0.0-9.0-0.14","1","16902","",NA,"","",30,"0",2,0,"NonInfo"
"","null","html-keyboard-response",41,1078854,"0.0-10.0","1","16902","<p><b> Congratulations, you have finished this block. </b> </p><p>Please take a short break before moving onto the next block.</p><p>The next block will start after a 15 second break.</p><b>Remember, the point rewards are the same between blocks",NA,"null","",NA,NA,NA,NA,""
"","908","bandit-task-exp6",42,1102885,"0.0-11.0-0.0","1","16902","",NA,"","",31,"1",1,0,"NonInfo"
"","742","bandit-task-exp6",43,1129091,"0.0-11.0-0.1","1","16902","",NA,"","",32,"1",2,85,"NonInfo"
"","599","bandit-task-exp6",44,1151909,"0.0-11.0-0.2","1","16902","",NA,"","",33,"1",2,75,"NonInfo"
"","503","bandit-task-exp6",45,1174323,"0.0-11.0-0.3","1","16902","",NA,"","",34,"1",2,75,"NonInfo"
"","531","bandit-task-exp6",46,1197030,"0.0-11.0-0.4","1","16902","",NA,"","",35,"0",1,110,"NonInfo"
"","496","bandit-task-exp6",47,1219475,"0.0-11.0-0.5","1","16902","",NA,"","",36,"0",1,114,"NonInfo"
"","715","bandit-task-exp6",48,1242099,"0.0-11.0-0.6","1","16902","",NA,"","",37,"0",1,116,"NonInfo"
"","452","bandit-task-exp6",49,1268388,"0.0-11.0-0.7","1","16902","",NA,"","",38,"1",2,75,"NonInfo"
"","440","bandit-task-exp6",50,1293290,"0.0-11.0-0.8","1","16902","",NA,"","",39,"0",2,0,"NonInfo"
"","705","bandit-task-exp6",51,1319611,"0.0-11.0-0.9","1","16902","",NA,"","",40,"1",1,0,"NonInfo"
"","534","bandit-task-exp6",52,1342683,"0.0-11.0-0.10","1","16902","",NA,"","",41,"0",2,0,"NonInfo"
"","474","bandit-task-exp6",53,1365268,"0.0-11.0-0.11","1","16902","",NA,"","",42,"0",2,0,"NonInfo"
"","587","bandit-task-exp6",54,1388973,"0.0-11.0-0.12","1","16902","",NA,"","",43,"1",2,71,"NonInfo"
"","908","bandit-task-exp6",55,1412269,"0.0-11.0-0.13","1","16902","",NA,"","",44,"0",1,115,"NonInfo"
"","512","bandit-task-exp6",56,1451751,"0.0-11.0-0.14","1","16902","",NA,"","",45,"1",1,0,"NonInfo"
"","null","html-keyboard-response",57,1466837,"0.0-12.0","1","16902","<p><b> Congratulations, you have finished this block. </b> </p><p>Please take a short break before moving onto the next block.</p><p>The next block will start after a 15 second break.</p><b>Remember, the point rewards are the same between blocks",NA,"null","",NA,NA,NA,NA,""
"","2288","bandit-task-exp6",58,1491242,"0.0-13.0-0.0","1","16902","",NA,"","",46,"1",1,0,"NonInfo"
"","493","bandit-task-exp6",59,1515453,"0.0-13.0-0.1","1","16902","",NA,"","",47,"1",2,89,"NonInfo"
"","479","bandit-task-exp6",60,1542090,"0.0-13.0-0.2","1","16902","",NA,"","",48,"1",1,0,"NonInfo"
"","697","bandit-task-exp6",61,1570847,"0.0-13.0-0.3","1","16902","",NA,"","",49,"0",1,129,"NonInfo"
"","526","bandit-task-exp6",62,1595411,"0.0-13.0-0.4","1","16902","",NA,"","",50,"1",1,0,"NonInfo"
"","704","bandit-task-exp6",63,1618779,"0.0-13.0-0.5","1","16902","",NA,"","",51,"0",1,112,"NonInfo"
"","479","bandit-task-exp6",64,1641501,"0.0-13.0-0.6","1","16902","",NA,"","",52,"1",2,87,"NonInfo"
"","627","bandit-task-exp6",65,1664362,"0.0-13.0-0.7","1","16902","",NA,"","",53,"1",2,82,"NonInfo"
"","532","bandit-task-exp6",66,1687337,"0.0-13.0-0.8","1","16902","",NA,"","",54,"0",2,0,"NonInfo"
"","910","bandit-task-exp6",67,1710626,"0.0-13.0-0.9","1","16902","",NA,"","",55,"0",1,118,"NonInfo"
"","673","bandit-task-exp6",68,1733268,"0.0-13.0-0.10","1","16902","",NA,"","",56,"1",2,85,"NonInfo"
"","416","bandit-task-exp6",69,1756161,"0.0-13.0-0.11","1","16902","",NA,"","",57,"1",1,0,"NonInfo"
"","577","bandit-task-exp6",70,1794803,"0.0-13.0-0.12","1","16902","",NA,"","",58,"0",1,122,"NonInfo"
"","708","bandit-task-exp6",71,1821135,"0.0-13.0-0.13","1","16902","",NA,"","",59,"1",1,0,"NonInfo"
"","810","bandit-task-exp6",72,1844578,"0.0-13.0-0.14","1","16902","",NA,"","",60,"1",2,75,"NonInfo"
"","1085","html-button-response",73,1845700,"0.0-14.0","1","16902","<p> Congratulations, you have finished the main part of the experiment. </p><p>Before you finish, we have a few short questions about the options and outcomes you saw in the task.</p>",0,"","",NA,NA,NA,NA,""
"","8009.974999993574","survey-text",74,1853742,"0.0-15.0","1","16902","",NA,"","{""undefined"":""60""}",NA,NA,NA,NA,""
"","2391.334999992978","survey-text",75,1856156,"0.0-16.0","1","16902","",NA,"","{""undefined"":""40""}",NA,NA,NA,NA,""
"","6660.375000035856","survey-text",76,1862844,"0.0-17.0","1","16902","",NA,"","{""undefined"":""A11W7R2O4RQSSS""}",NA,NA,NA,NA,""
"","8099","html-button-response",77,1870961,"0.0-18.0","1","16902","<p><b>The task is now finished</b></p>Copy the following code:  <b>16902</b></br><p>This is your HIT which you will need to receive payment via mTurk.</p><p><b>Thank you for taking part and completing the experiment!</b></p>",0,"","",NA,NA,NA,NA,""
"[{""page_index"":0,""viewing_time"":276710}]","276714","instructions",0,276824,"0.0-0.0","0","16933","",NA,"","",NA,NA,NA,NA,""
"","83319","html-button-response",1,360160,"0.0-1.0","0","16933","<p>This experiment is now online instead of in-person in a controlled computer lab due to the current COVID-19 pandemic.</br> Please focus on the experiment and refrain from activities such as:</p>- <b>switching to other tabs on your browser (this will be monitored via the experiment)</br> - going on your mobile phone/cell phone</br> - communicating with others</br></br></b><p>This way you are helping to provide data that is useful for psychological research.</p>",0,"","",NA,NA,NA,NA,""
"","1523","html-keyboard-response",2,361690,"0.0-2.0","0","16933","<p>Welcome to the experiment.</p><p>Press the SPACE bar to continue</p>",NA,"32","",NA,NA,NA,NA,""
"","3996.099999989383","survey-text",3,365718,"0.0-3.0","0","16933","",NA,"","{""undefined"":""30 ""}",NA,NA,NA,NA,""
"","3031","survey-multi-choice",4,368767,"0.0-4.0","0","16933","",NA,"","{""Q0"":""Male""}",NA,NA,NA,NA,""
"","47996","html-button-response",5,416800,"0.0-5.0-0.0","0","16933","<p> On each trial throughout the experiment you will choose between the options </br><b> Find Out Now </b> and <b> Keep It Secret </b>, as seen below.</p><div><div style= 'float: left; width: 300px; margin: 10px 10px;'><img src= 'NWTKimg/KeepItSecret.jpg'></img></div><div style= 'float: right; width: 300px; margin: 10px 10px;'><img src= 'NWTKimg/FindOutNow.jpg'></img></div></div><br/><br/><br/><br/><br/><br/><br/><br/><br/><br/><br/><p>Each option results in winning points or receiving 0 points.</br>There is a 50% chance of either winning or receiving 0 points, but you won't receive the outcome until after a <b> 20 second delay</b>.</p><p>You can however gain information about the outcome as the two options, Find Out Now & Keep It Secret, suggest. </p>",0,"","",NA,NA,NA,NA,""
"","16038","html-button-response",6,432846,"0.0-5.0-1.0","0","16933","<img src= 'cues/Experiment6.png'></img><p>As seen above, when choosing the <b>'Find Out Now'</b> option, you will receive either a happy face or sad face.</br>The happy face means you will win points after the delay, whereas the sad face means you will receive 0 points.</br></p><p> When choosing the <b> 'Keep it Secret' </b> option you will receive a confused face.</br> This face appears regardless of whether you are going to win points or not. </p>In short, choosing 'Find Out Now' allows you to find out the outcome before you experience it (after the delay).</br></br>",0,"","",NA,NA,NA,NA,""
"","24034","html-button-response",7,456888,"0.0-5.0-2.0","0","16933","<p> There will be <b>four blocks</b> in the experiment.</br>You will be given a short 15 second break between each block.</p><p><b>The points and the options will remain the same between the blocks.</b></p>The blocks are there just to give you a small break.</br></br><p>The points you earn in the task are also equal to <b> actual money</b>.</br> <b>1000 points is equal to $1 USD</b></p><p>This is the rate you will be paid at the experiment's end.",0,"","",NA,NA,NA,NA,""
"","24243","survey-multi-choice",8,481164,"0.0-5.0-3.0","0","16933","",NA,"","{""Q0"":""20 Seconds"",""Q1"":""True"",""Q2"":""False""}",NA,NA,NA,NA,""
"","4004","html-button-response",9,485207,"0.0-5.0-4.0-0.0","0","16933","Unfortunately, at least one of your answers was incorrect.<p> ",0,"","",NA,NA,NA,NA,""
"","2873","html-button-response",10,488094,"0.0-5.1-0.1","0","16933","<p> On each trial throughout the experiment you will choose between the options </br><b> Find Out Now </b> and <b> Keep It Secret </b>, as seen below.</p><div><div style= 'float: left; width: 300px; margin: 10px 10px;'><img src= 'NWTKimg/KeepItSecret.jpg'></img></div><div style= 'float: right; width: 300px; margin: 10px 10px;'><img src= 'NWTKimg/FindOutNow.jpg'></img></div></div><br/><br/><br/><br/><br/><br/><br/><br/><br/><br/><br/><p>Each option results in winning points or receiving 0 points.</br>There is a 50% chance of either winning or receiving 0 points, but you won't receive the outcome until after a <b> 20 second delay</b>.</p><p>You can however gain information about the outcome as the two options, Find Out Now & Keep It Secret, suggest. </p>",0,"","",NA,NA,NA,NA,""
"","10952","html-button-response",11,499055,"0.0-5.1-1.1","0","16933","<img src= 'cues/Experiment6.png'></img><p>As seen above, when choosing the <b>'Find Out Now'</b> option, you will receive either a happy face or sad face.</br>The happy face means you will win points after the delay, whereas the sad face means you will receive 0 points.</br></p><p> When choosing the <b> 'Keep it Secret' </b> option you will receive a confused face.</br> This face appears regardless of whether you are going to win points or not. </p>In short, choosing 'Find Out Now' allows you to find out the outcome before you experience it (after the delay).</br></br>",0,"","",NA,NA,NA,NA,""
"","7015","html-button-response",12,506079,"0.0-5.1-2.1","0","16933","<p> There will be <b>four blocks</b> in the experiment.</br>You will be given a short 15 second break between each block.</p><p><b>The points and the options will remain the same between the blocks.</b></p>The blocks are there just to give you a small break.</br></br><p>The points you earn in the task are also equal to <b> actual money</b>.</br> <b>1000 points is equal to $1 USD</b></p><p>This is the rate you will be paid at the experiment's end.",0,"","",NA,NA,NA,NA,""
"","14019","survey-multi-choice",13,520118,"0.0-5.1-3.1","0","16933","",NA,"","{""Q0"":""20 Seconds"",""Q1"":""True"",""Q2"":""True""}",NA,NA,NA,NA,""
"","4688","html-button-response",14,524844,"0.0-6.0","0","16933","<p> The experiment is about to start. <br/> Click start to continue, or email your researcher <b>(j.embrey@unsw.edu.au)</b> if you have any questions before starting.",0,"","",NA,NA,NA,NA,""
"","2651","bandit-task-exp6",15,550454,"0.0-7.0-0.0","0","16933","",NA,"","",1,"1",2,78,"Informative"
"","1764","bandit-task-exp6",16,574570,"0.0-7.0-0.1","0","16933","",NA,"","",2,"1",1,0,"Informative"
"","1395","bandit-task-exp6",17,597766,"0.0-7.0-0.2","0","16933","",NA,"","",3,"1",1,0,"Informative"
"","3902","bandit-task-exp6",18,623117,"0.0-7.0-0.3","0","16933","",NA,"","",4,"1",1,0,"Informative"
"","1989","bandit-task-exp6",19,646624,"0.0-7.0-0.4","0","16933","",NA,"","",5,"1",1,0,"Informative"
"","1562","bandit-task-exp6",20,669942,"0.0-7.0-0.5","0","16933","",NA,"","",6,"1",2,76,"Informative"
"","2176","bandit-task-exp6",21,693604,"0.0-7.0-0.6","0","16933","",NA,"","",7,"1",2,71,"Informative"
"","1853","bandit-task-exp6",22,716880,"0.0-7.0-0.7","0","16933","",NA,"","",8,"1",2,85,"Informative"
"","1642","bandit-task-exp6",23,740003,"0.0-7.0-0.8","0","16933","",NA,"","",9,"1",2,78,"Informative"
"","1920","bandit-task-exp6",24,763495,"0.0-7.0-0.9","0","16933","",NA,"","",10,"1",2,76,"Informative"
"","1842","bandit-task-exp6",25,786826,"0.0-7.0-0.10","0","16933","",NA,"","",11,"1",2,88,"Informative"
"","1754","bandit-task-exp6",26,810087,"0.0-7.0-0.11","0","16933","",NA,"","",12,"1",2,84,"Informative"
"","1750","bandit-task-exp6",27,833309,"0.0-7.0-0.12","0","16933","",NA,"","",13,"1",2,81,"Informative"
"","1860","bandit-task-exp6",28,856608,"0.0-7.0-0.13","0","16933","",NA,"","",14,"1",1,0,"Informative"
"","1603","bandit-task-exp6",29,879875,"0.0-7.0-0.14","0","16933","",NA,"","",15,"0",2,0,"Informative"
"","null","html-keyboard-response",30,894884,"0.0-8.0","0","16933","<p><b> Congratulations, you have finished this block. </b> </p><p>Please take a short break before moving onto the next block.</p><p>The next block will start after a 15 second break.</p><b>Remember, the point rewards are the same between blocks",NA,"null","",NA,NA,NA,NA,""
"","1850","bandit-task-exp6",31,918128,"0.0-9.0-0.0","0","16933","",NA,"","",16,"1",1,0,"Informative"
"","1699","bandit-task-exp6",32,941316,"0.0-9.0-0.1","0","16933","",NA,"","",17,"1",2,71,"Informative"
"","1567","bandit-task-exp6",33,964419,"0.0-9.0-0.2","0","16933","",NA,"","",18,"1",1,0,"Informative"
"","1327","bandit-task-exp6",34,987242,"0.0-9.0-0.3","0","16933","",NA,"","",19,"1",2,75,"Informative"
"","1802","bandit-task-exp6",35,1010489,"0.0-9.0-0.4","0","16933","",NA,"","",20,"1",1,0,"Informative"
"","1711","bandit-task-exp6",36,1033644,"0.0-9.0-0.5","0","16933","",NA,"","",21,"1",1,0,"Informative"
"","2426","bandit-task-exp6",37,1057600,"0.0-9.0-0.6","0","16933","",NA,"","",22,"0",2,0,"Informative"
"","1535","bandit-task-exp6",38,1080951,"0.0-9.0-0.7","0","16933","",NA,"","",23,"0",1,110,"Informative"
"","1520","bandit-task-exp6",39,1103978,"0.0-9.0-0.8","0","16933","",NA,"","",24,"0",2,0,"Informative"
"","1450","bandit-task-exp6",40,1126982,"0.0-9.0-0.9","0","16933","",NA,"","",25,"0",1,122,"Informative"
"","1835","bandit-task-exp6",41,1150223,"0.0-9.0-0.10","0","16933","",NA,"","",26,"0",2,0,"Informative"
"","1716","bandit-task-exp6",42,1173434,"0.0-9.0-0.11","0","16933","",NA,"","",27,"0",1,119,"Informative"
"","2251","bandit-task-exp6",43,1197206,"0.0-9.0-0.12","0","16933","",NA,"","",28,"0",1,129,"Informative"
"","1625","bandit-task-exp6",44,1220855,"0.0-9.0-0.13","0","16933","",NA,"","",29,"0",2,0,"Informative"
"","1747","bandit-task-exp6",45,1244087,"0.0-9.0-0.14","0","16933","",NA,"","",30,"0",2,0,"Informative"
"","null","html-keyboard-response",46,1259095,"0.0-10.0","0","16933","<p><b> Congratulations, you have finished this block. </b> </p><p>Please take a short break before moving onto the next block.</p><p>The next block will start after a 15 second break.</p><b>Remember, the point rewards are the same between blocks",NA,"null","",NA,NA,NA,NA,""
"","1766","bandit-task-exp6",47,1283180,"0.0-11.0-0.0","0","16933","",NA,"","",31,"0",2,0,"Informative"
"","1547","bandit-task-exp6",48,1306356,"0.0-11.0-0.1","0","16933","",NA,"","",32,"0",2,0,"Informative"
"","1631","bandit-task-exp6",49,1329487,"0.0-11.0-0.2","0","16933","",NA,"","",33,"0",1,128,"Informative"
"","1733","bandit-task-exp6",50,1352872,"0.0-11.0-0.3","0","16933","",NA,"","",34,"0",2,0,"Informative"
"","1737","bandit-task-exp6",51,1376890,"0.0-11.0-0.4","0","16933","",NA,"","",35,"0",2,0,"Informative"
"","1277","bandit-task-exp6",52,1399961,"0.0-11.0-0.5","0","16933","",NA,"","",36,"0",1,110,"Informative"
"","2384","bandit-task-exp6",53,1423877,"0.0-11.0-0.6","0","16933","",NA,"","",37,"0",1,125,"Informative"
"","1524","bandit-task-exp6",54,1446867,"0.0-11.0-0.7","0","16933","",NA,"","",38,"0",2,0,"Informative"
"","1760","bandit-task-exp6",55,1470141,"0.0-11.0-0.8","0","16933","",NA,"","",39,"1",1,0,"Informative"
"","1498","bandit-task-exp6",56,1493180,"0.0-11.0-0.9","0","16933","",NA,"","",40,"0",2,0,"Informative"
"","1439","bandit-task-exp6",57,1516755,"0.0-11.0-0.10","0","16933","",NA,"","",41,"0",1,118,"Informative"
"","1638","bandit-task-exp6",58,1539837,"0.0-11.0-0.11","0","16933","",NA,"","",42,"0",2,0,"Informative"
"","1877","bandit-task-exp6",59,1563500,"0.0-11.0-0.12","0","16933","",NA,"","",43,"1",2,83,"Informative"
"","1534","bandit-task-exp6",60,1586499,"0.0-11.0-0.13","0","16933","",NA,"","",44,"0",1,128,"Informative"
"","1714","bandit-task-exp6",61,1609760,"0.0-11.0-0.14","0","16933","",NA,"","",45,"0",1,126,"Informative"
"","null","html-keyboard-response",62,1624772,"0.0-12.0","0","16933","<p><b> Congratulations, you have finished this block. </b> </p><p>Please take a short break before moving onto the next block.</p><p>The next block will start after a 15 second break.</p><b>Remember, the point rewards are the same between blocks",NA,"null","",NA,NA,NA,NA,""
"","2110","bandit-task-exp6",63,1648342,"0.0-13.0-0.0","0","16933","",NA,"","",46,"0",2,0,"Informative"
"","1248","bandit-task-exp6",64,1671061,"0.0-13.0-0.1","0","16933","",NA,"","",47,"0",1,124,"Informative"
"","1575","bandit-task-exp6",65,1694093,"0.0-13.0-0.2","0","16933","",NA,"","",48,"0",1,118,"Informative"
"","1503","bandit-task-exp6",66,1716973,"0.0-13.0-0.3","0","16933","",NA,"","",49,"0",2,0,"Informative"
"","1562","bandit-task-exp6",67,1739990,"0.0-13.0-0.4","0","16933","",NA,"","",50,"0",1,128,"Informative"
"","1578","bandit-task-exp6",68,1763024,"0.0-13.0-0.5","0","16933","",NA,"","",51,"0",2,0,"Informative"
"","1620","bandit-task-exp6",69,1786089,"0.0-13.0-0.6","0","16933","",NA,"","",52,"0",1,121,"Informative"
"","1706","bandit-task-exp6",70,1809261,"0.0-13.0-0.7","0","16933","",NA,"","",53,"0",2,0,"Informative"
"","1556","bandit-task-exp6",71,1832425,"0.0-13.0-0.8","0","16933","",NA,"","",54,"0",2,0,"Informative"
"","1478","bandit-task-exp6",72,1855318,"0.0-13.0-0.9","0","16933","",NA,"","",55,"0",1,119,"Informative"
"","1517","bandit-task-exp6",73,1878256,"0.0-13.0-0.10","0","16933","",NA,"","",56,"0",2,0,"Informative"
"","1849","bandit-task-exp6",74,1901529,"0.0-13.0-0.11","0","16933","",NA,"","",57,"0",1,117,"Informative"
"","1525","bandit-task-exp6",75,1924437,"0.0-13.0-0.12","0","16933","",NA,"","",58,"0",2,0,"Informative"
"","1455","bandit-task-exp6",76,1947280,"0.0-13.0-0.13","0","16933","",NA,"","",59,"0",2,0,"Informative"
"","1806","bandit-task-exp6",77,1971171,"0.0-13.0-0.14","0","16933","",NA,"","",60,"0",1,128,"Informative"
"","11432","html-button-response",78,1982615,"0.0-14.0","0","16933","<p> Congratulations, you have finished the main part of the experiment. </p><p>Before you finish, we have a few short questions about the options and outcomes you saw in the task.</p>",0,"","",NA,NA,NA,NA,""
"","10305.014999990817","survey-text",79,1992949,"0.0-15.0","0","16933","",NA,"","{""undefined"":""85""}",NA,NA,NA,NA,""
"","8130.650000006426","survey-text",80,2001115,"0.0-16.0","0","16933","",NA,"","{""undefined"":""30 ""}",NA,NA,NA,NA,""
"","5489.325000002282","survey-text",81,2006627,"0.0-17.0","0","16933","",NA,"","{""undefined"":""A1N7GHHBH8GMVZ""}",NA,NA,NA,NA,""
"","34941","html-button-response",82,2041577,"0.0-18.0","0","16933","<p><b>The task is now finished</b></p>Copy the following code:  <b>16933</b></br><p>This is your HIT which you will need to receive payment via mTurk.</p><p><b>Thank you for taking part and completing the experiment!</b></p>",0,"","",NA,NA,NA,NA,""
"[{""page_index"":0,""viewing_time"":47441}]","47444","instructions",0,47459,"0.0-0.0","0","17602","",NA,"","",NA,NA,NA,NA,""
"","13861","html-button-response",1,61330,"0.0-1.0","0","17602","<p>This experiment is now online instead of in-person in a controlled computer lab due to the current COVID-19 pandemic.</br> Please focus on the experiment and refrain from activities such as:</p>- <b>switching to other tabs on your browser (this will be monitored via the experiment)</br> - going on your mobile phone/cell phone</br> - communicating with others</br></br></b><p>This way you are helping to provide data that is useful for psychological research.</p>",0,"","",NA,NA,NA,NA,""
"","9445","html-keyboard-response",2,70780,"0.0-2.0","0","17602","<p>Welcome to the experiment.</p><p>Press the SPACE bar to continue</p>",NA,"32","",NA,NA,NA,NA,""
"","3564.2549999975017","survey-text",3,74357,"0.0-3.0","0","17602","",NA,"","{""undefined"":""50""}",NA,NA,NA,NA,""
"","2350","survey-multi-choice",4,76716,"0.0-4.0","0","17602","",NA,"","{""Q0"":""Male""}",NA,NA,NA,NA,""
"","34816","html-button-response",5,111539,"0.0-5.0-0.0","0","17602","<p> On each trial throughout the experiment you will choose between the options </br><b> Find Out Now </b> and <b> Keep It Secret </b>, as seen below.</p><div><div style= 'float: left; width: 300px; margin: 10px 10px;'><img src= 'NWTKimg/KeepItSecret.jpg'></img></div><div style= 'float: right; width: 300px; margin: 10px 10px;'><img src= 'NWTKimg/FindOutNow.jpg'></img></div></div><br/><br/><br/><br/><br/><br/><br/><br/><br/><br/><br/><p>Each option results in winning points or receiving 0 points.</br>There is a 50% chance of either winning or receiving 0 points, but you won't receive the outcome until after a <b> 20 second delay</b>.</p><p>You can however gain information about the outcome as the two options, Find Out Now & Keep It Secret, suggest. </p>",0,"","",NA,NA,NA,NA,""
"","35403","html-button-response",6,146948,"0.0-5.0-1.0","0","17602","<img src= 'cues/Experiment6.png'></img><p>As seen above, when choosing the <b>'Find Out Now'</b> option, you will receive either a happy face or sad face.</br>The happy face means you will win points after the delay, whereas the sad face means you will receive 0 points.</br></p><p> When choosing the <b> 'Keep it Secret' </b> option you will receive a confused face.</br> This face appears regardless of whether you are going to win points or not. </p>In short, choosing 'Find Out Now' allows you to find out the outcome before you experience it (after the delay).</br></br>",0,"","",NA,NA,NA,NA,""
"","17891","html-button-response",7,164845,"0.0-5.0-2.0","0","17602","<p> There will be <b>four blocks</b> in the experiment.</br>You will be given a short 15 second break between each block.</p><p><b>The points and the options will remain the same between the blocks.</b></p>The blocks are there just to give you a small break.</br></br><p>The points you earn in the task are also equal to <b> actual money</b>.</br> <b>1000 points is equal to $1 USD</b></p><p>This is the rate you will be paid at the experiment's end.",0,"","",NA,NA,NA,NA,""
"","11423","survey-multi-choice",8,176280,"0.0-5.0-3.0","0","17602","",NA,"","{""Q0"":""20 Seconds"",""Q1"":""True"",""Q2"":""True""}",NA,NA,NA,NA,""
"","2518","html-button-response",9,178805,"0.0-6.0","0","17602","<p> The experiment is about to start. <br/> Click start to continue, or email your researcher <b>(j.embrey@unsw.edu.au)</b> if you have any questions before starting.",0,"","",NA,NA,NA,NA,""
"","1606","bandit-task-exp6",10,202986,"0.0-7.0-0.0","0","17602","",NA,"","",1,"0",2,0,"Informative"
"","1330","bandit-task-exp6",11,226848,"0.0-7.0-0.1","0","17602","",NA,"","",2,"1",2,77,"Informative"
"","1228","bandit-task-exp6",12,250890,"0.0-7.0-0.2","0","17602","",NA,"","",3,"0",2,0,"Informative"
"","926","bandit-task-exp6",13,274306,"0.0-7.0-0.3","0","17602","",NA,"","",4,"1",1,0,"Informative"
"","845","bandit-task-exp6",14,297203,"0.0-7.0-0.4","0","17602","",NA,"","",5,"1",1,0,"Informative"
"","1141","bandit-task-exp6",15,327660,"0.0-7.0-0.5","0","17602","",NA,"","",6,"0",1,113,"Informative"
"","1286","bandit-task-exp6",16,351164,"0.0-7.0-0.6","0","17602","",NA,"","",7,"1",1,0,"Informative"
"","894","bandit-task-exp6",17,374901,"0.0-7.0-0.7","0","17602","",NA,"","",8,"0",1,110,"Informative"
"","1349","bandit-task-exp6",18,398407,"0.0-7.0-0.8","0","17602","",NA,"","",9,"0",2,0,"Informative"
"","590","bandit-task-exp6",19,421671,"0.0-7.0-0.9","0","17602","",NA,"","",10,"0",1,129,"Informative"
"","1337","bandit-task-exp6",20,445912,"0.0-7.0-0.10","0","17602","",NA,"","",11,"1",2,81,"Informative"
"","637","bandit-task-exp6",21,468831,"0.0-7.0-0.11","0","17602","",NA,"","",12,"0",2,0,"Informative"
"","693","bandit-task-exp6",22,492058,"0.0-7.0-0.12","0","17602","",NA,"","",13,"0",1,120,"Informative"
"","837","bandit-task-exp6",23,515323,"0.0-7.0-0.13","0","17602","",NA,"","",14,"0",1,119,"Informative"
"","532","bandit-task-exp6",24,538259,"0.0-7.0-0.14","0","17602","",NA,"","",15,"0",1,129,"Informative"
"","null","html-keyboard-response",25,553266,"0.0-8.0","0","17602","<p><b> Congratulations, you have finished this block. </b> </p><p>Please take a short break before moving onto the next block.</p><p>The next block will start after a 15 second break.</p><b>Remember, the point rewards are the same between blocks",NA,"null","",NA,NA,NA,NA,""
"","18760","bandit-task-exp6",26,594452,"0.0-9.0-0.0","0","17602","",NA,"","",16,"0",1,114,"Informative"
"","808","bandit-task-exp6",27,617478,"0.0-9.0-0.1","0","17602","",NA,"","",17,"0",2,0,"Informative"
"","1996","bandit-task-exp6",28,641654,"0.0-9.0-0.2","0","17602","",NA,"","",18,"0",2,0,"Informative"
"","1254","bandit-task-exp6",29,665199,"0.0-9.0-0.3","0","17602","",NA,"","",19,"1",2,85,"Informative"
"","771","bandit-task-exp6",30,688073,"0.0-9.0-0.4","0","17602","",NA,"","",20,"1",1,0,"Informative"
"","859","bandit-task-exp6",31,712193,"0.0-9.0-0.5","0","17602","",NA,"","",21,"0",2,0,"Informative"
"","1805","bandit-task-exp6",32,737674,"0.0-9.0-0.6","0","17602","",NA,"","",22,"0",2,0,"Informative"
"","1194","bandit-task-exp6",33,761539,"0.0-9.0-0.7","0","17602","",NA,"","",23,"0",2,0,"Informative"
"","791","bandit-task-exp6",34,784540,"0.0-9.0-0.8","0","17602","",NA,"","",24,"1",1,0,"Informative"
"","795","bandit-task-exp6",35,807669,"0.0-9.0-0.9","0","17602","",NA,"","",25,"0",2,0,"Informative"
"","1401","bandit-task-exp6",36,832758,"0.0-9.0-0.10","0","17602","",NA,"","",26,"0",2,0,"Informative"
"","1259","bandit-task-exp6",37,856190,"0.0-9.0-0.11","0","17602","",NA,"","",27,"0",2,0,"Informative"
"","1845","bandit-task-exp6",38,880695,"0.0-9.0-0.12","0","17602","",NA,"","",28,"0",1,120,"Informative"
"","1222","bandit-task-exp6",39,904560,"0.0-9.0-0.13","0","17602","",NA,"","",29,"0",1,119,"Informative"
"","1340","bandit-task-exp6",40,928010,"0.0-9.0-0.14","0","17602","",NA,"","",30,"0",1,122,"Informative"
"","null","html-keyboard-response",41,943016,"0.0-10.0","0","17602","<p><b> Congratulations, you have finished this block. </b> </p><p>Please take a short break before moving onto the next block.</p><p>The next block will start after a 15 second break.</p><b>Remember, the point rewards are the same between blocks",NA,"null","",NA,NA,NA,NA,""
"","1979","bandit-task-exp6",42,967738,"0.0-11.0-0.0","0","17602","",NA,"","",31,"0",1,125,"Informative"
"","1165","bandit-task-exp6",43,991027,"0.0-11.0-0.1","0","17602","",NA,"","",32,"0",2,0,"Informative"
"","1094","bandit-task-exp6",44,1014180,"0.0-11.0-0.2","0","17602","",NA,"","",33,"0",2,0,"Informative"
"","1051","bandit-task-exp6",45,1037628,"0.0-11.0-0.3","0","17602","",NA,"","",34,"0",1,127,"Informative"
"","1510","bandit-task-exp6",46,1061765,"0.0-11.0-0.4","0","17602","",NA,"","",35,"0",2,0,"Informative"
"","1220","bandit-task-exp6",47,1085326,"0.0-11.0-0.5","0","17602","",NA,"","",36,"0",1,127,"Informative"
"","1053","bandit-task-exp6",48,1108631,"0.0-11.0-0.6","0","17602","",NA,"","",37,"0",2,0,"Informative"
"","924","bandit-task-exp6",49,1132096,"0.0-11.0-0.7","0","17602","",NA,"","",38,"0",1,130,"Informative"
"","1717","bandit-task-exp6",50,1155753,"0.0-11.0-0.8","0","17602","",NA,"","",39,"0",2,0,"Informative"
"","801","bandit-task-exp6",51,1178921,"0.0-11.0-0.9","0","17602","",NA,"","",40,"0",1,129,"Informative"
"","1204","bandit-task-exp6",52,1205234,"0.0-11.0-0.10","0","17602","",NA,"","",41,"0",2,0,"Informative"
"","1339","bandit-task-exp6",53,1228883,"0.0-11.0-0.11","0","17602","",NA,"","",42,"0",1,129,"Informative"
"","2047","bandit-task-exp6",54,1254420,"0.0-11.0-0.12","0","17602","",NA,"","",43,"0",1,112,"Informative"
"","1578","bandit-task-exp6",55,1279100,"0.0-11.0-0.13","0","17602","",NA,"","",44,"0",1,128,"Informative"
"","1634","bandit-task-exp6",56,1303358,"0.0-11.0-0.14","0","17602","",NA,"","",45,"0",2,0,"Informative"
"","null","html-keyboard-response",57,1318365,"0.0-12.0","0","17602","<p><b> Congratulations, you have finished this block. </b> </p><p>Please take a short break before moving onto the next block.</p><p>The next block will start after a 15 second break.</p><b>Remember, the point rewards are the same between blocks",NA,"null","",NA,NA,NA,NA,""
"","2425","bandit-task-exp6",58,1344095,"0.0-13.0-0.0","0","17602","",NA,"","",46,"0",2,0,"Informative"
"","1354","bandit-task-exp6",59,1389543,"0.0-13.0-0.1","0","17602","",NA,"","",47,"0",2,0,"Informative"
"","928","bandit-task-exp6",60,1412401,"0.0-13.0-0.2","0","17602","",NA,"","",48,"0",2,0,"Informative"
"","1501","bandit-task-exp6",61,1436490,"0.0-13.0-0.3","0","17602","",NA,"","",49,"0",2,0,"Informative"
"","1069","bandit-task-exp6",62,1460307,"0.0-13.0-0.4","0","17602","",NA,"","",50,"0",1,123,"Informative"
"","1476","bandit-task-exp6",63,1483501,"0.0-13.0-0.5","0","17602","",NA,"","",51,"0",1,112,"Informative"
"","1251","bandit-task-exp6",64,1507332,"0.0-13.0-0.6","0","17602","",NA,"","",52,"0",1,118,"Informative"
"","1508","bandit-task-exp6",65,1531078,"0.0-13.0-0.7","0","17602","",NA,"","",53,"0",2,0,"Informative"
"","1325","bandit-task-exp6",66,1554846,"0.0-13.0-0.8","0","17602","",NA,"","",54,"0",1,115,"Informative"
"","941","bandit-task-exp6",67,1578095,"0.0-13.0-0.9","0","17602","",NA,"","",55,"0",2,0,"Informative"
"","1107","bandit-task-exp6",68,1602241,"0.0-13.0-0.10","0","17602","",NA,"","",56,"0",1,116,"Informative"
"","1175","bandit-task-exp6",69,1627089,"0.0-13.0-0.11","0","17602","",NA,"","",57,"0",2,0,"Informative"
"","1445","bandit-task-exp6",70,1651137,"0.0-13.0-0.12","0","17602","",NA,"","",58,"0",1,110,"Informative"
"","1204","bandit-task-exp6",71,1676098,"0.0-13.0-0.13","0","17602","",NA,"","",59,"0",1,116,"Informative"
"","2100","bandit-task-exp6",72,1700275,"0.0-13.0-0.14","0","17602","",NA,"","",60,"0",1,122,"Informative"
"","3976","html-button-response",73,1704259,"0.0-14.0","0","17602","<p> Congratulations, you have finished the main part of the experiment. </p><p>Before you finish, we have a few short questions about the options and outcomes you saw in the task.</p>",0,"","",NA,NA,NA,NA,""
"","18850.52000000002","survey-text",74,1723124,"0.0-15.0","0","17602","",NA,"","{""undefined"":""77""}",NA,NA,NA,NA,""
"","13067.510000000708","survey-text",75,1736204,"0.0-16.0","0","17602","",NA,"","{""undefined"":""90""}",NA,NA,NA,NA,""
"","6892.295000005048","survey-text",76,1743109,"0.0-17.0","0","17602","",NA,"","{""undefined"":""A36QBKROJ4J9EJ""}",NA,NA,NA,NA,""
"","16680","html-button-response",77,1759796,"0.0-18.0","0","17602","<p><b>The task is now finished</b></p>Copy the following code:  <b>17602</b></br><p>This is your HIT which you will need to receive payment via mTurk.</p><p><b>Thank you for taking part and completing the experiment!</b></p>",0,"","",NA,NA,NA,NA,""
"[{""page_index"":0,""viewing_time"":253007}]","253008","instructions",0,253016,"0.0-0.0","0","18182","",NA,"","",NA,NA,NA,NA,""
"","8758","html-button-response",1,261778,"0.0-1.0","0","18182","<p>This experiment is now online instead of in-person in a controlled computer lab due to the current COVID-19 pandemic.</br> Please focus on the experiment and refrain from activities such as:</p>- <b>switching to other tabs on your browser (this will be monitored via the experiment)</br> - going on your mobile phone/cell phone</br> - communicating with others</br></br></b><p>This way you are helping to provide data that is useful for psychological research.</p>",0,"","",NA,NA,NA,NA,""
"","6425","html-keyboard-response",2,268205,"0.0-2.0","0","18182","<p>Welcome to the experiment.</p><p>Press the SPACE bar to continue</p>",NA,"32","",NA,NA,NA,NA,""
"","6352.000000071712","survey-text",3,274562,"0.0-3.0","0","18182","",NA,"","{""undefined"":""40""}",NA,NA,NA,NA,""
"","2699","survey-multi-choice",4,277266,"0.0-4.0","0","18182","",NA,"","{""Q0"":""Female""}",NA,NA,NA,NA,""
"","40620","html-button-response",5,317889,"0.0-5.0-0.0","0","18182","<p> On each trial throughout the experiment you will choose between the options </br><b> Find Out Now </b> and <b> Keep It Secret </b>, as seen below.</p><div><div style= 'float: left; width: 300px; margin: 10px 10px;'><img src= 'NWTKimg/KeepItSecret.jpg'></img></div><div style= 'float: right; width: 300px; margin: 10px 10px;'><img src= 'NWTKimg/FindOutNow.jpg'></img></div></div><br/><br/><br/><br/><br/><br/><br/><br/><br/><br/><br/><p>Each option results in winning points or receiving 0 points.</br>There is a 50% chance of either winning or receiving 0 points, but you won't receive the outcome until after a <b> 20 second delay</b>.</p><p>You can however gain information about the outcome as the two options, Find Out Now & Keep It Secret, suggest. </p>",0,"","",NA,NA,NA,NA,""
"","41016","html-button-response",6,358906,"0.0-5.0-1.0","0","18182","<img src= 'cues/Experiment6.png'></img><p>As seen above, when choosing the <b>'Find Out Now'</b> option, you will receive either a happy face or sad face.</br>The happy face means you will win points after the delay, whereas the sad face means you will receive 0 points.</br></p><p> When choosing the <b> 'Keep it Secret' </b> option you will receive a confused face.</br> This face appears regardless of whether you are going to win points or not. </p>In short, choosing 'Find Out Now' allows you to find out the outcome before you experience it (after the delay).</br></br>",0,"","",NA,NA,NA,NA,""
"","24236","html-button-response",7,383145,"0.0-5.0-2.0","0","18182","<p> There will be <b>four blocks</b> in the experiment.</br>You will be given a short 15 second break between each block.</p><p><b>The points and the options will remain the same between the blocks.</b></p>The blocks are there just to give you a small break.</br></br><p>The points you earn in the task are also equal to <b> actual money</b>.</br> <b>1000 points is equal to $1 USD</b></p><p>This is the rate you will be paid at the experiment's end.",0,"","",NA,NA,NA,NA,""
"","19761","survey-multi-choice",8,402911,"0.0-5.0-3.0","0","18182","",NA,"","{""Q0"":""20 Seconds"",""Q1"":""True"",""Q2"":""True""}",NA,NA,NA,NA,""
"","4880","html-button-response",9,407795,"0.0-6.0","0","18182","<p> The experiment is about to start. <br/> Click start to continue, or email your researcher <b>(j.embrey@unsw.edu.au)</b> if you have any questions before starting.",0,"","",NA,NA,NA,NA,""
"","3816","bandit-task-exp6",10,434275,"0.0-7.0-0.0","0","18182","",NA,"","",1,"1",2,85,"Informative"
"","3554","bandit-task-exp6",11,461171,"0.0-7.0-0.1","0","18182","",NA,"","",2,"0",1,110,"Informative"
"","1619","bandit-task-exp6",12,485321,"0.0-7.0-0.2","0","18182","",NA,"","",3,"0",2,0,"Informative"
"","1598","bandit-task-exp6",13,530260,"0.0-7.0-0.3","0","18182","",NA,"","",4,"1",1,0,"Informative"
"","2242","bandit-task-exp6",14,556567,"0.0-7.0-0.4","0","18182","",NA,"","",5,"1",1,0,"Informative"
"","11811","bandit-task-exp6",15,604733,"0.0-7.0-0.5","0","18182","",NA,"","",6,"0",2,0,"Informative"
"","1374","bandit-task-exp6",16,629306,"0.0-7.0-0.6","0","18182","",NA,"","",7,"1",2,90,"Informative"
"","3411","bandit-task-exp6",17,655794,"0.0-7.0-0.7","0","18182","",NA,"","",8,"0",1,128,"Informative"
"","1867","bandit-task-exp6",18,681261,"0.0-7.0-0.8","0","18182","",NA,"","",9,"0",1,121,"Informative"
"","1604","bandit-task-exp6",19,707606,"0.0-7.0-0.9","0","18182","",NA,"","",10,"1",1,0,"Informative"
"","1650","bandit-task-exp6",20,735709,"0.0-7.0-0.10","0","18182","",NA,"","",11,"0",2,0,"Informative"
"","1541","bandit-task-exp6",21,820991,"0.0-7.0-0.11","0","18182","",NA,"","",12,"1",1,0,"Informative"
"","7767","bandit-task-exp6",22,851684,"0.0-7.0-0.12","0","18182","",NA,"","",13,"0",1,129,"Informative"
"","2218","bandit-task-exp6",23,876971,"0.0-7.0-0.13","0","18182","",NA,"","",14,"1",1,0,"Informative"
"","2412","bandit-task-exp6",24,909987,"0.0-7.0-0.14","0","18182","",NA,"","",15,"1",2,70,"Informative"
"","null","html-keyboard-response",25,924990,"0.0-8.0","0","18182","<p><b> Congratulations, you have finished this block. </b> </p><p>Please take a short break before moving onto the next block.</p><p>The next block will start after a 15 second break.</p><b>Remember, the point rewards are the same between blocks",NA,"null","",NA,NA,NA,NA,""
"","2811","bandit-task-exp6",26,950423,"0.0-9.0-0.0","0","18182","",NA,"","",16,"0",2,0,"Informative"
"","1786","bandit-task-exp6",27,974449,"0.0-9.0-0.1","0","18182","",NA,"","",17,"1",1,0,"Informative"
"","6058","bandit-task-exp6",28,1012258,"0.0-9.0-0.2","0","18182","",NA,"","",18,"1",1,0,"Informative"
"","16130","bandit-task-exp6",29,1051769,"0.0-9.0-0.3","0","18182","",NA,"","",19,"0",2,0,"Informative"
"","5133","bandit-task-exp6",30,1080465,"0.0-9.0-0.4","0","18182","",NA,"","",20,"0",1,129,"Informative"
"","9478","bandit-task-exp6",31,1121160,"0.0-9.0-0.5","0","18182","",NA,"","",21,"0",2,0,"Informative"
"","5855","bandit-task-exp6",32,1149171,"0.0-9.0-0.6","0","18182","",NA,"","",22,"0",2,0,"Informative"
"","8462","bandit-task-exp6",33,1193357,"0.0-9.0-0.7","0","18182","",NA,"","",23,"1",2,80,"Informative"
"","7236","bandit-task-exp6",34,1223046,"0.0-9.0-0.8","0","18182","",NA,"","",24,"0",2,0,"Informative"
"","4045","bandit-task-exp6",35,1249591,"0.0-9.0-0.9","0","18182","",NA,"","",25,"1",2,87,"Informative"
"","2208","bandit-task-exp6",36,1274254,"0.0-9.0-0.10","0","18182","",NA,"","",26,"1",2,81,"Informative"
"","4331","bandit-task-exp6",37,1316942,"0.0-9.0-0.11","0","18182","",NA,"","",27,"0",2,0,"Informative"
"","1561","bandit-task-exp6",38,1340965,"0.0-9.0-0.12","0","18182","",NA,"","",28,"0",1,118,"Informative"
"","3388","bandit-task-exp6",39,1368063,"0.0-9.0-0.13","0","18182","",NA,"","",29,"1",2,76,"Informative"
"","11526","bandit-task-exp6",40,1404377,"0.0-9.0-0.14","0","18182","",NA,"","",30,"0",2,0,"Informative"
"","null","html-keyboard-response",41,1419379,"0.0-10.0","0","18182","<p><b> Congratulations, you have finished this block. </b> </p><p>Please take a short break before moving onto the next block.</p><p>The next block will start after a 15 second break.</p><b>Remember, the point rewards are the same between blocks",NA,"null","",NA,NA,NA,NA,""
"","26865","bandit-task-exp6",42,1470770,"0.0-11.0-0.0","0","18182","",NA,"","",31,"0",2,0,"Informative"
"","2429","bandit-task-exp6",43,1496131,"0.0-11.0-0.1","0","18182","",NA,"","",32,"0",2,0,"Informative"
"","13667","bandit-task-exp6",44,1533129,"0.0-11.0-0.2","0","18182","",NA,"","",33,"1",2,78,"Informative"
"","11706","bandit-task-exp6",45,1566720,"0.0-11.0-0.3","0","18182","",NA,"","",34,"1",1,0,"Informative"
"","1516","bandit-task-exp6",46,1593825,"0.0-11.0-0.4","0","18182","",NA,"","",35,"1",2,84,"Informative"
"","6022","bandit-task-exp6",47,1625773,"0.0-11.0-0.5","0","18182","",NA,"","",36,"1",1,0,"Informative"
"","1473","bandit-task-exp6",48,1650772,"0.0-11.0-0.6","0","18182","",NA,"","",37,"1",1,0,"Informative"
"","2362","bandit-task-exp6",49,1675925,"0.0-11.0-0.7","0","18182","",NA,"","",38,"1",1,0,"Informative"
"","4513","bandit-task-exp6",50,1702605,"0.0-11.0-0.8","0","18182","",NA,"","",39,"0",2,0,"Informative"
"","2893","bandit-task-exp6",51,1733710,"0.0-11.0-0.9","0","18182","",NA,"","",40,"0",1,118,"Informative"
"","14894","bandit-task-exp6",52,1794293,"0.0-11.0-0.10","0","18182","",NA,"","",41,"1",2,88,"Informative"
"","5127","bandit-task-exp6",53,1821969,"0.0-11.0-0.11","0","18182","",NA,"","",42,"0",2,0,"Informative"
"","2115","bandit-task-exp6",54,1849305,"0.0-11.0-0.12","0","18182","",NA,"","",43,"0",2,0,"Informative"
"","2451","bandit-task-exp6",55,1874499,"0.0-11.0-0.13","0","18182","",NA,"","",44,"1",2,87,"Informative"
"","1611","bandit-task-exp6",56,1898762,"0.0-11.0-0.14","0","18182","",NA,"","",45,"1",1,0,"Informative"
"","null","html-keyboard-response",57,1913765,"0.0-12.0","0","18182","<p><b> Congratulations, you have finished this block. </b> </p><p>Please take a short break before moving onto the next block.</p><p>The next block will start after a 15 second break.</p><b>Remember, the point rewards are the same between blocks",NA,"null","",NA,NA,NA,NA,""
"","1616","bandit-task-exp6",58,1937604,"0.0-13.0-0.0","0","18182","",NA,"","",46,"1",1,0,"Informative"
"","8762","bandit-task-exp6",59,1969635,"0.0-13.0-0.1","0","18182","",NA,"","",47,"0",1,113,"Informative"
"","6706","bandit-task-exp6",60,1999220,"0.0-13.0-0.2","0","18182","",NA,"","",48,"0",2,0,"Informative"
"","2202","bandit-task-exp6",61,2024998,"0.0-13.0-0.3","0","18182","",NA,"","",49,"0",1,115,"Informative"
"","3723","bandit-task-exp6",62,2051118,"0.0-13.0-0.4","0","18182","",NA,"","",50,"1",2,75,"Informative"
"","1937","bandit-task-exp6",63,2080037,"0.0-13.0-0.5","0","18182","",NA,"","",51,"0",2,0,"Informative"
"","1422","bandit-task-exp6",64,2103743,"0.0-13.0-0.6","0","18182","",NA,"","",52,"1",1,0,"Informative"
"","6795","bandit-task-exp6",65,2133671,"0.0-13.0-0.7","0","18182","",NA,"","",53,"0",1,120,"Informative"
"","1825","bandit-task-exp6",66,2157933,"0.0-13.0-0.8","0","18182","",NA,"","",54,"1",2,76,"Informative"
"","1651","bandit-task-exp6",67,2181828,"0.0-13.0-0.9","0","18182","",NA,"","",55,"1",2,72,"Informative"
"","1307","bandit-task-exp6",68,2205940,"0.0-13.0-0.10","0","18182","",NA,"","",56,"0",2,0,"Informative"
"","1381","bandit-task-exp6",69,2232046,"0.0-13.0-0.11","0","18182","",NA,"","",57,"0",2,0,"Informative"
"","4288","bandit-task-exp6",70,2258717,"0.0-13.0-0.12","0","18182","",NA,"","",58,"1",2,71,"Informative"
"","8460","bandit-task-exp6",71,2289853,"0.0-13.0-0.13","0","18182","",NA,"","",59,"0",2,0,"Informative"
"","6083","bandit-task-exp6",72,2347469,"0.0-13.0-0.14","0","18182","",NA,"","",60,"0",2,0,"Informative"
"","5461","html-button-response",73,2352931,"0.0-14.0","0","18182","<p> Congratulations, you have finished the main part of the experiment. </p><p>Before you finish, we have a few short questions about the options and outcomes you saw in the task.</p>",0,"","",NA,NA,NA,NA,""
"","23574.999999953434","survey-text",74,2376513,"0.0-15.0","0","18182","",NA,"","{""undefined"":""1000""}",NA,NA,NA,NA,""
"","5751.99999997858","survey-text",75,2382270,"0.0-16.0","0","18182","",NA,"","{""undefined"":""1500""}",NA,NA,NA,NA,""
"","10506.999999983236","survey-text",76,2392782,"0.0-17.0","0","18182","",NA,"","{""undefined"":""A37EUI7DODP53E""}",NA,NA,NA,NA,""
"","16108","html-button-response",77,2408893,"0.0-18.0","0","18182","<p><b>The task is now finished</b></p>Copy the following code:  <b>18182</b></br><p>This is your HIT which you will need to receive payment via mTurk.</p><p><b>Thank you for taking part and completing the experiment!</b></p>",0,"","",NA,NA,NA,NA,""
"[{""page_index"":0,""viewing_time"":10151}]","10152","instructions",0,10164,"0.0-0.0","1","18282","",NA,"","",NA,NA,NA,NA,""
"","169317","html-button-response",1,179484,"0.0-1.0","1","18282","<p>This experiment is now online instead of in-person in a controlled computer lab due to the current COVID-19 pandemic.</br> Please focus on the experiment and refrain from activities such as:</p>- <b>switching to other tabs on your browser (this will be monitored via the experiment)</br> - going on your mobile phone/cell phone</br> - communicating with others</br></br></b><p>This way you are helping to provide data that is useful for psychological research.</p>",0,"","",NA,NA,NA,NA,""
"","1754","html-keyboard-response",2,181240,"0.0-2.0","1","18282","<p>Welcome to the experiment.</p><p>Press the SPACE bar to continue</p>",NA,"32","",NA,NA,NA,NA,""
"","3575.8000000059837","survey-text",3,184821,"0.0-3.0","1","18282","",NA,"","{""undefined"":""36""}",NA,NA,NA,NA,""
"","1692","survey-multi-choice",4,186518,"0.0-4.0","1","18282","",NA,"","{""Q0"":""Male""}",NA,NA,NA,NA,""
"","16810","html-button-response",5,203330,"0.0-5.0-0.0","1","18282","<p> On each trial throughout the experiment you will choose between two options </br>a <b>Black Square </b> and <b> Black Triangle </b>, as seen below.</p><div><div style= 'float: left; width: 300px; margin: 10px 10px;'><img src= 'NWTKimg/square.png'></img></div><div style= 'float: right; width: 300px; margin: 10px 10px;'><img src= 'NWTKimg/triangle.png'></img></div></div><br/><br/><br/><br/><br/><br/><br/><br/><br/><br/><br/><p>Each option results in winning points or receiving 0 points.</br></br>There is a 50% chance of either winning or receiving 0 points, but you won't receive the outcome until after a <b> 20 second delay</b>.</p>",0,"","",NA,NA,NA,NA,""
