"rt","stimulus","button_pressed","trial_type","trial_index","time_elapsed","internal_node_id","gender","age","language","PID","sona_id","subStim","optStim","stim1","stim2","infoCond","optimCond","bonus","responses","banditTrial","choice","cue","feedback","estimateData","leftOption","rightOption","choiceName","leftInput","rightInput","key_press","postQ","singleEst"
"1212","<p>Thank you for signing up to participate in SONA Study 465! <br> During this study, please focus on the experiment and refrain from activities such as:</p>- <b>Switching to other tabs on your browser (this will be monitored via the experiment)</br> - Using your mobile phone/cell phone</br> - Communicating with others</br></br></b><p>This way, you are helping to provide data that is useful for psychological research. We thank you for your cooperation!</p>","0","html-button-response","0","1215","0.0-0.0","male","20","Australia","54973","26145","imgNWTK/square.png","imgNWTK/triangle.png","imgNWTK/square.png","imgNWTK/triangle.png","noninfo","optim","2.82","","","","","","","","","","","","","",""
"1180","<p>Welcome to the experiment!</p><p>You will now read some instructions about the task. Press the 'Next' button to continue. </p>","0","html-button-response","1","2398","0.0-1.0","male","20","Australia","54973","26145","imgNWTK/square.png","imgNWTK/triangle.png","imgNWTK/square.png","imgNWTK/triangle.png","noninfo","optim","2.82","","","","","","","","","","","","","",""
"9430","<p> On each trial throughout the experiment you will choose between two options, </br>a <b>Black Square </b> and <b> Black Triangle </b>, as seen below.</p><div><div style= 'float: left; width: 300px; margin: 10px 10px;'><img src= 'imgNWTK/square.png'></img></div><div style= 'float: right; width: 300px; margin: 10px 10px;'><img src= 'imgNWTK/triangle.png'></img></div></div><br/><br/><br/><br/><br/><br/><br/><br/><br/><br/><br/><p>Each option results in winning points or receiving 0 points.</br>There is a 50% chance of either winning or receiving 0 points.</p><p>You won't receive the outcome until after a <b> 20 second delay</b>.</p>","0","html-button-response","2","11831","0.0-2.0-0.0","male","20","Australia","54973","26145","imgNWTK/square.png","imgNWTK/triangle.png","imgNWTK/square.png","imgNWTK/triangle.png","noninfo","optim","2.82","","","","","","","","","","","","","",""
"10764","<img src= 'imgNWTK/NonInfoDiagram.png'></img><p>As seen above, whether you choose the square or triangle, you will receive a coloured circle after the choice. </p> <p>This circle will be on screen for 20 seconds until you win points or receive 0 points.</p><p>The coloured circle depends on which option you chose. </br> In the above example, choosing a triangle leads to a green circle and choosing the square leads to a red circle.</p>Please note: the circles in your task will be different to the above colours.</br></br>","0","html-button-response","3","22598","0.0-2.0-1.0","male","20","Australia","54973","26145","imgNWTK/square.png","imgNWTK/triangle.png","imgNWTK/square.png","imgNWTK/triangle.png","noninfo","optim","2.82","","","","","","","","","","","","","",""
"2814","<img src= 'cues/winTrials_noInfo.png' width = '1200'></img><p>To reiterate, 50% of the outcomes of each option will be WIN TRIALS, and the other 50% will be NO-WIN TRIALS.","0","html-button-response","4","25415","0.0-2.0-2.0","male","20","Australia","54973","26145","imgNWTK/square.png","imgNWTK/triangle.png","imgNWTK/square.png","imgNWTK/triangle.png","noninfo","optim","2.82","","","","","","","","","","","","","",""
"1230","<p> There will be <b>four blocks</b> in the experiment.</br>You will be given a short 15 second break between each block.</p><p><b>The points and the options will remain the same between the blocks.</b></p>The blocks are there just to give you a small break.</br></br></br></br><p>The points you earn in the task are also equal to <b> actual money</b>.</br> <b>1000 points is equal to $1 AUD</b></p><p>This is the rate you will be paid at the experiment's end.","0","html-button-response","5","26648","0.0-2.0-3.0","male","20","Australia","54973","26145","imgNWTK/square.png","imgNWTK/triangle.png","imgNWTK/square.png","imgNWTK/triangle.png","noninfo","optim","2.82","","","","","","","","","","","","","",""
"11094","","","survey-multi-choice","6","37749","0.0-2.0-4.0","male","20","Australia","54973","26145","imgNWTK/square.png","imgNWTK/triangle.png","imgNWTK/square.png","imgNWTK/triangle.png","noninfo","optim","2.82","{""Q0"":""20 Seconds"",""Q1"":""True"",""Q2"":""Equally""}","","","","","","","","","","","","",""
"1129","<p> Well done, all your answers were correct! <br> The experiment is about to start now. <br/> Click start to continue, or email your researcher <b>(amy.x.li@unsw.edu.au)</b> if you have any questions before starting.","0","html-button-response","7","38881","0.0-3.0","male","20","Australia","54973","26145","imgNWTK/square.png","imgNWTK/triangle.png","imgNWTK/square.png","imgNWTK/triangle.png","noninfo","optim","2.82","","","","","","","","","","","","","",""
"2512","","","bandit-task-exp6","8","63831","0.0-4.0-0.0","male","20","Australia","54973","26145","imgNWTK/square.png","imgNWTK/triangle.png","imgNWTK/square.png","imgNWTK/triangle.png","noninfo","optim","2.82","","1","2","2","114","null","imgNWTK/square.png","imgNWTK/triangle.png","imgNWTK/triangle.png","NaN","NaN","","",""
"880","","","bandit-task-exp6","9","87199","0.0-4.0-0.1","male","20","Australia","54973","26145","imgNWTK/square.png","imgNWTK/triangle.png","imgNWTK/square.png","imgNWTK/triangle.png","noninfo","optim","2.82","","2","1","1","72","null","imgNWTK/square.png","imgNWTK/triangle.png","imgNWTK/square.png","NaN","NaN","","",""
"1177","","","bandit-task-exp6","10","110279","0.0-4.0-0.2","male","20","Australia","54973","26145","imgNWTK/square.png","imgNWTK/triangle.png","imgNWTK/square.png","imgNWTK/triangle.png","noninfo","optim","2.82","","3","1","1","83","null","imgNWTK/triangle.png","imgNWTK/square.png","imgNWTK/square.png","NaN","NaN","","",""
"714","","","bandit-task-exp6","11","197797","0.0-4.0-0.3","male","20","Australia","54973","26145","imgNWTK/square.png","imgNWTK/triangle.png","imgNWTK/square.png","imgNWTK/triangle.png","noninfo","optim","2.82","","4","2","1","0","null","imgNWTK/square.png","imgNWTK/triangle.png","imgNWTK/triangle.png","NaN","NaN","","",""
"1244","","","bandit-task-exp6","12","220763","0.0-4.0-0.4","male","20","Australia","54973","26145","imgNWTK/square.png","imgNWTK/triangle.png","imgNWTK/square.png","imgNWTK/triangle.png","noninfo","optim","2.82","","5","2","1","0","null","imgNWTK/triangle.png","imgNWTK/square.png","imgNWTK/triangle.png","NaN","NaN","","",""
"462","","","bandit-task-exp6","13","243462","0.0-4.0-0.5","male","20","Australia","54973","26145","imgNWTK/square.png","imgNWTK/triangle.png","imgNWTK/square.png","imgNWTK/triangle.png","noninfo","optim","2.82","","6","1","2","0","null","imgNWTK/triangle.png","imgNWTK/square.png","imgNWTK/square.png","NaN","NaN","","",""
"630","","","bandit-task-exp6","14","267263","0.0-4.0-0.6","male","20","Australia","54973","26145","imgNWTK/square.png","imgNWTK/triangle.png","imgNWTK/square.png","imgNWTK/triangle.png","noninfo","optim","2.82","","7","2","2","110","null","imgNWTK/square.png","imgNWTK/triangle.png","imgNWTK/triangle.png","NaN","NaN","","",""
"545","","","bandit-task-exp6","15","289546","0.0-4.0-0.7","male","20","Australia","54973","26145","imgNWTK/square.png","imgNWTK/triangle.png","imgNWTK/square.png","imgNWTK/triangle.png","noninfo","optim","2.82","","8","1","1","71","null","imgNWTK/triangle.png","imgNWTK/square.png","imgNWTK/square.png","NaN","NaN","","",""
"394","","","bandit-task-exp6","16","311811","0.0-4.0-0.8","male","20","Australia","54973","26145","imgNWTK/square.png","imgNWTK/triangle.png","imgNWTK/square.png","imgNWTK/triangle.png","noninfo","optim","2.82","","9","2","1","0","null","imgNWTK/square.png","imgNWTK/triangle.png","imgNWTK/triangle.png","NaN","NaN","","",""
"798","","","bandit-task-exp6","17","334295","0.0-4.0-0.9","male","20","Australia","54973","26145","imgNWTK/square.png","imgNWTK/triangle.png","imgNWTK/square.png","imgNWTK/triangle.png","noninfo","optim","2.82","","10","2","2","111","null","imgNWTK/triangle.png","imgNWTK/square.png","imgNWTK/triangle.png","NaN","NaN","","",""
"512","","","bandit-task-exp6","18","356645","0.0-4.0-0.10","male","20","Australia","54973","26145","imgNWTK/square.png","imgNWTK/triangle.png","imgNWTK/square.png","imgNWTK/triangle.png","noninfo","optim","2.82","","11","1","2","0","null","imgNWTK/triangle.png","imgNWTK/square.png","imgNWTK/square.png","NaN","NaN","","",""
"529","","","bandit-task-exp6","19","379163","0.0-4.0-0.11","male","20","Australia","54973","26145","imgNWTK/square.png","imgNWTK/triangle.png","imgNWTK/square.png","imgNWTK/triangle.png","noninfo","optim","2.82","","12","1","2","0","null","imgNWTK/triangle.png","imgNWTK/square.png","imgNWTK/square.png","NaN","NaN","","",""
"494","","","bandit-task-exp6","20","404577","0.0-4.0-0.12","male","20","Australia","54973","26145","imgNWTK/square.png","imgNWTK/triangle.png","imgNWTK/square.png","imgNWTK/triangle.png","noninfo","optim","2.82","","13","1","1","90","null","imgNWTK/square.png","imgNWTK/triangle.png","imgNWTK/square.png","NaN","NaN","","",""
"430","","","bandit-task-exp6","21","428076","0.0-4.0-0.13","male","20","Australia","54973","26145","imgNWTK/square.png","imgNWTK/triangle.png","imgNWTK/square.png","imgNWTK/triangle.png","noninfo","optim","2.82","","14","1","2","0","null","imgNWTK/square.png","imgNWTK/triangle.png","imgNWTK/square.png","NaN","NaN","","",""
"414","","","bandit-task-exp6","22","453526","0.0-4.0-0.14","male","20","Australia","54973","26145","imgNWTK/square.png","imgNWTK/triangle.png","imgNWTK/square.png","imgNWTK/triangle.png","noninfo","optim","2.82","","15","1","2","0","null","imgNWTK/square.png","imgNWTK/triangle.png","imgNWTK/square.png","NaN","NaN","","",""
"null","<p><b> Congratulations, you have finished this block. </b> </p><p>Please take a short break before moving onto the next block.</p><p>The next block will start after a 15 second break.</p><b>Remember, the point rewards are the same between blocks","","html-keyboard-response","23","468529","0.0-5.0","male","20","Australia","54973","26145","imgNWTK/square.png","imgNWTK/triangle.png","imgNWTK/square.png","imgNWTK/triangle.png","noninfo","optim","2.82","","","","","","","","","","","","null","",""
"17029","","","bandit-task-exp6","24","508492","0.0-6.0-0.0","male","20","Australia","54973","26145","imgNWTK/square.png","imgNWTK/triangle.png","imgNWTK/square.png","imgNWTK/triangle.png","noninfo","optim","2.82","","16","2","1","0","null","imgNWTK/triangle.png","imgNWTK/square.png","imgNWTK/triangle.png","NaN","NaN","","",""
"450","","","bandit-task-exp6","25","535075","0.0-6.0-0.1","male","20","Australia","54973","26145","imgNWTK/square.png","imgNWTK/triangle.png","imgNWTK/square.png","imgNWTK/triangle.png","noninfo","optim","2.82","","17","1","2","0","null","imgNWTK/square.png","imgNWTK/triangle.png","imgNWTK/square.png","NaN","NaN","","",""
"398","","","bandit-task-exp6","26","557727","0.0-6.0-0.2","male","20","Australia","54973","26145","imgNWTK/square.png","imgNWTK/triangle.png","imgNWTK/square.png","imgNWTK/triangle.png","noninfo","optim","2.82","","18","2","2","129","null","imgNWTK/triangle.png","imgNWTK/square.png","imgNWTK/triangle.png","NaN","NaN","","",""
"730","","","bandit-task-exp6","27","580859","0.0-6.0-0.3","male","20","Australia","54973","26145","imgNWTK/square.png","imgNWTK/triangle.png","imgNWTK/square.png","imgNWTK/triangle.png","noninfo","optim","2.82","","19","1","2","0","null","imgNWTK/square.png","imgNWTK/triangle.png","imgNWTK/square.png","NaN","NaN","","",""
"1431","","","bandit-task-exp6","28","603943","0.0-6.0-0.4","male","20","Australia","54973","26145","imgNWTK/square.png","imgNWTK/triangle.png","imgNWTK/square.png","imgNWTK/triangle.png","noninfo","optim","2.82","","20","1","2","0","null","imgNWTK/square.png","imgNWTK/triangle.png","imgNWTK/square.png","NaN","NaN","","",""
"447","","","bandit-task-exp6","29","628476","0.0-6.0-0.5","male","20","Australia","54973","26145","imgNWTK/square.png","imgNWTK/triangle.png","imgNWTK/square.png","imgNWTK/triangle.png","noninfo","optim","2.82","","21","2","1","0","null","imgNWTK/triangle.png","imgNWTK/square.png","imgNWTK/triangle.png","NaN","NaN","","",""
"464","","","bandit-task-exp6","30","651876","0.0-6.0-0.6","male","20","Australia","54973","26145","imgNWTK/square.png","imgNWTK/triangle.png","imgNWTK/square.png","imgNWTK/triangle.png","noninfo","optim","2.82","","22","2","1","0","null","imgNWTK/triangle.png","imgNWTK/square.png","imgNWTK/triangle.png","NaN","NaN","","",""
"430","","","bandit-task-exp6","31","678442","0.0-6.0-0.7","male","20","Australia","54973","26145","imgNWTK/square.png","imgNWTK/triangle.png","imgNWTK/square.png","imgNWTK/triangle.png","noninfo","optim","2.82","","23","1","2","0","null","imgNWTK/square.png","imgNWTK/triangle.png","imgNWTK/square.png","NaN","NaN","","",""
"614","","","bandit-task-exp6","32","705759","0.0-6.0-0.8","male","20","Australia","54973","26145","imgNWTK/square.png","imgNWTK/triangle.png","imgNWTK/square.png","imgNWTK/triangle.png","noninfo","optim","2.82","","24","2","2","124","null","imgNWTK/triangle.png","imgNWTK/square.png","imgNWTK/triangle.png","NaN","NaN","","",""
"11547","","","bandit-task-exp6","33","739792","0.0-6.0-0.9","male","20","Australia","54973","26145","imgNWTK/square.png","imgNWTK/triangle.png","imgNWTK/square.png","imgNWTK/triangle.png","noninfo","optim","2.82","","25","1","1","77","null","imgNWTK/square.png","imgNWTK/triangle.png","imgNWTK/square.png","NaN","NaN","","",""
"412","","","bandit-task-exp6","34","763241","0.0-6.0-0.10","male","20","Australia","54973","26145","imgNWTK/square.png","imgNWTK/triangle.png","imgNWTK/square.png","imgNWTK/triangle.png","noninfo","optim","2.82","","26","2","1","0","null","imgNWTK/triangle.png","imgNWTK/square.png","imgNWTK/triangle.png","NaN","NaN","","",""
"581","","","bandit-task-exp6","35","785274","0.0-6.0-0.11","male","20","Australia","54973","26145","imgNWTK/square.png","imgNWTK/triangle.png","imgNWTK/square.png","imgNWTK/triangle.png","noninfo","optim","2.82","","27","1","2","0","null","imgNWTK/square.png","imgNWTK/triangle.png","imgNWTK/square.png","NaN","NaN","","",""
"7414","","","bandit-task-exp6","36","815424","0.0-6.0-0.12","male","20","Australia","54973","26145","imgNWTK/square.png","imgNWTK/triangle.png","imgNWTK/square.png","imgNWTK/triangle.png","noninfo","optim","2.82","","28","2","2","110","null","imgNWTK/triangle.png","imgNWTK/square.png","imgNWTK/triangle.png","NaN","NaN","","",""
"514","","","bandit-task-exp6","37","837758","0.0-6.0-0.13","male","20","Australia","54973","26145","imgNWTK/square.png","imgNWTK/triangle.png","imgNWTK/square.png","imgNWTK/triangle.png","noninfo","optim","2.82","","29","1","1","87","null","imgNWTK/square.png","imgNWTK/triangle.png","imgNWTK/square.png","NaN","NaN","","",""
"413","","","bandit-task-exp6","38","867609","0.0-6.0-0.14","male","20","Australia","54973","26145","imgNWTK/square.png","imgNWTK/triangle.png","imgNWTK/square.png","imgNWTK/triangle.png","noninfo","optim","2.82","","30","1","2","0","null","imgNWTK/square.png","imgNWTK/triangle.png","imgNWTK/square.png","NaN","NaN","","",""
"null","<p><b> Congratulations, you have finished this block. </b> </p><p>Please take a short break before moving onto the next block.</p><p>The next block will start after a 15 second break.</p><b>Remember, the point rewards are the same between blocks","","html-keyboard-response","39","882612","0.0-7.0","male","20","Australia","54973","26145","imgNWTK/square.png","imgNWTK/triangle.png","imgNWTK/square.png","imgNWTK/triangle.png","noninfo","optim","2.82","","","","","","","","","","","","null","",""
"7007","","","bandit-task-exp6","40","916607","0.0-8.0-0.0","male","20","Australia","54973","26145","imgNWTK/square.png","imgNWTK/triangle.png","imgNWTK/square.png","imgNWTK/triangle.png","noninfo","optim","2.82","","31","1","2","0","null","imgNWTK/square.png","imgNWTK/triangle.png","imgNWTK/square.png","NaN","NaN","","",""
"814","","","bandit-task-exp6","41","939276","0.0-8.0-0.1","male","20","Australia","54973","26145","imgNWTK/square.png","imgNWTK/triangle.png","imgNWTK/square.png","imgNWTK/triangle.png","noninfo","optim","2.82","","32","1","1","72","null","imgNWTK/square.png","imgNWTK/triangle.png","imgNWTK/square.png","NaN","NaN","","",""
"361","","","bandit-task-exp6","42","961723","0.0-8.0-0.2","male","20","Australia","54973","26145","imgNWTK/square.png","imgNWTK/triangle.png","imgNWTK/square.png","imgNWTK/triangle.png","noninfo","optim","2.82","","33","2","2","123","null","imgNWTK/triangle.png","imgNWTK/square.png","imgNWTK/triangle.png","NaN","NaN","","",""
"464","","","bandit-task-exp6","43","983840","0.0-8.0-0.3","male","20","Australia","54973","26145","imgNWTK/square.png","imgNWTK/triangle.png","imgNWTK/square.png","imgNWTK/triangle.png","noninfo","optim","2.82","","34","2","2","130","null","imgNWTK/triangle.png","imgNWTK/square.png","imgNWTK/triangle.png","NaN","NaN","","",""
"580","","","bandit-task-exp6","44","1005875","0.0-8.0-0.4","male","20","Australia","54973","26145","imgNWTK/square.png","imgNWTK/triangle.png","imgNWTK/square.png","imgNWTK/triangle.png","noninfo","optim","2.82","","35","2","1","0","null","imgNWTK/triangle.png","imgNWTK/square.png","imgNWTK/triangle.png","NaN","NaN","","",""
"410","","","bandit-task-exp6","45","1032091","0.0-8.0-0.5","male","20","Australia","54973","26145","imgNWTK/square.png","imgNWTK/triangle.png","imgNWTK/square.png","imgNWTK/triangle.png","noninfo","optim","2.82","","36","1","2","0","null","imgNWTK/square.png","imgNWTK/triangle.png","imgNWTK/square.png","NaN","NaN","","",""
"4647","","","bandit-task-exp6","46","1058489","0.0-8.0-0.6","male","20","Australia","54973","26145","imgNWTK/square.png","imgNWTK/triangle.png","imgNWTK/square.png","imgNWTK/triangle.png","noninfo","optim","2.82","","37","1","1","71","null","imgNWTK/square.png","imgNWTK/triangle.png","imgNWTK/square.png","NaN","NaN","","",""
"315","","","bandit-task-exp6","47","1090655","0.0-8.0-0.7","male","20","Australia","54973","26145","imgNWTK/square.png","imgNWTK/triangle.png","imgNWTK/square.png","imgNWTK/triangle.png","noninfo","optim","2.82","","38","2","1","0","null","imgNWTK/triangle.png","imgNWTK/square.png","imgNWTK/triangle.png","NaN","NaN","","",""
"363","","","bandit-task-exp6","48","1112657","0.0-8.0-0.8","male","20","Australia","54973","26145","imgNWTK/square.png","imgNWTK/triangle.png","imgNWTK/square.png","imgNWTK/triangle.png","noninfo","optim","2.82","","39","2","2","117","null","imgNWTK/triangle.png","imgNWTK/square.png","imgNWTK/triangle.png","NaN","NaN","","",""
"428","","","bandit-task-exp6","49","1137240","0.0-8.0-0.9","male","20","Australia","54973","26145","imgNWTK/square.png","imgNWTK/triangle.png","imgNWTK/square.png","imgNWTK/triangle.png","noninfo","optim","2.82","","40","1","1","81","null","imgNWTK/square.png","imgNWTK/triangle.png","imgNWTK/square.png","NaN","NaN","","",""
"610","","","bandit-task-exp6","50","1159790","0.0-8.0-0.10","male","20","Australia","54973","26145","imgNWTK/square.png","imgNWTK/triangle.png","imgNWTK/square.png","imgNWTK/triangle.png","noninfo","optim","2.82","","41","2","1","0","null","imgNWTK/triangle.png","imgNWTK/square.png","imgNWTK/triangle.png","NaN","NaN","","",""
"446","","","bandit-task-exp6","51","1182891","0.0-8.0-0.11","male","20","Australia","54973","26145","imgNWTK/square.png","imgNWTK/triangle.png","imgNWTK/square.png","imgNWTK/triangle.png","noninfo","optim","2.82","","42","2","1","0","null","imgNWTK/triangle.png","imgNWTK/square.png","imgNWTK/triangle.png","NaN","NaN","","",""
"410","","","bandit-task-exp6","52","1205022","0.0-8.0-0.12","male","20","Australia","54973","26145","imgNWTK/square.png","imgNWTK/triangle.png","imgNWTK/square.png","imgNWTK/triangle.png","noninfo","optim","2.82","","43","2","2","121","null","imgNWTK/triangle.png","imgNWTK/square.png","imgNWTK/triangle.png","NaN","NaN","","",""
"363","","","bandit-task-exp6","53","1227538","0.0-8.0-0.13","male","20","Australia","54973","26145","imgNWTK/square.png","imgNWTK/triangle.png","imgNWTK/square.png","imgNWTK/triangle.png","noninfo","optim","2.82","","44","1","1","85","null","imgNWTK/square.png","imgNWTK/triangle.png","imgNWTK/square.png","NaN","NaN","","",""
"397","","","bandit-task-exp6","54","1249938","0.0-8.0-0.14","male","20","Australia","54973","26145","imgNWTK/square.png","imgNWTK/triangle.png","imgNWTK/square.png","imgNWTK/triangle.png","noninfo","optim","2.82","","45","1","1","87","null","imgNWTK/square.png","imgNWTK/triangle.png","imgNWTK/square.png","NaN","NaN","","",""
"null","<p><b> Congratulations, you have finished this block. </b> </p><p>Please take a short break before moving onto the next block.</p><p>The next block will start after a 15 second break.</p><b>Remember, the point rewards are the same between blocks","","html-keyboard-response","55","1264939","0.0-9.0","male","20","Australia","54973","26145","imgNWTK/square.png","imgNWTK/triangle.png","imgNWTK/square.png","imgNWTK/triangle.png","noninfo","optim","2.82","","","","","","","","","","","","null","",""
"51195","","","bandit-task-exp6","56","1352956","0.0-10.0-0.0","male","20","Australia","54973","26145","imgNWTK/square.png","imgNWTK/triangle.png","imgNWTK/square.png","imgNWTK/triangle.png","noninfo","optim","2.82","","46","2","2","123","null","imgNWTK/square.png","imgNWTK/triangle.png","imgNWTK/triangle.png","0","167","","",""
"7911","","","bandit-task-exp6","57","1384338","0.0-10.0-0.1","male","20","Australia","54973","26145","imgNWTK/square.png","imgNWTK/triangle.png","imgNWTK/square.png","imgNWTK/triangle.png","noninfo","optim","2.82","","47","2","1","0","null","imgNWTK/square.png","imgNWTK/triangle.png","imgNWTK/triangle.png","0","87","","",""
"3677","","","bandit-task-exp6","58","1457205","0.0-10.0-0.2","male","20","Australia","54973","26145","imgNWTK/square.png","imgNWTK/triangle.png","imgNWTK/square.png","imgNWTK/triangle.png","noninfo","optim","2.82","","48","1","1","76","null","imgNWTK/square.png","imgNWTK/triangle.png","imgNWTK/square.png","0","90","","",""
"4241","","","bandit-task-exp6","59","1493386","0.0-10.0-0.3","male","20","Australia","54973","26145","imgNWTK/square.png","imgNWTK/triangle.png","imgNWTK/square.png","imgNWTK/triangle.png","noninfo","optim","2.82","","49","1","2","0","null","imgNWTK/triangle.png","imgNWTK/square.png","imgNWTK/square.png","0","82","","",""
"3462","","","bandit-task-exp6","60","1535704","0.0-10.0-0.4","male","20","Australia","54973","26145","imgNWTK/square.png","imgNWTK/triangle.png","imgNWTK/square.png","imgNWTK/triangle.png","noninfo","optim","2.82","","50","1","2","0","null","imgNWTK/triangle.png","imgNWTK/square.png","imgNWTK/square.png","21","0","","",""
"6462","","","bandit-task-exp6","61","1571869","0.0-10.0-0.5","male","20","Australia","54973","26145","imgNWTK/square.png","imgNWTK/triangle.png","imgNWTK/square.png","imgNWTK/triangle.png","noninfo","optim","2.82","","51","2","1","0","null","imgNWTK/square.png","imgNWTK/triangle.png","imgNWTK/triangle.png","96","0","","",""
"4611","","","bandit-task-exp6","62","1598837","0.0-10.0-0.6","male","20","Australia","54973","26145","imgNWTK/square.png","imgNWTK/triangle.png","imgNWTK/square.png","imgNWTK/triangle.png","noninfo","optim","2.82","","52","1","1","81","null","imgNWTK/square.png","imgNWTK/triangle.png","imgNWTK/square.png","96","0","","",""
"3327","","","bandit-task-exp6","63","1630552","0.0-10.0-0.7","male","20","Australia","54973","26145","imgNWTK/square.png","imgNWTK/triangle.png","imgNWTK/square.png","imgNWTK/triangle.png","noninfo","optim","2.82","","53","2","1","0","null","imgNWTK/square.png","imgNWTK/triangle.png","imgNWTK/triangle.png","0","82","","",""
"4913","","","bandit-task-exp6","64","1680953","0.0-10.0-0.8","male","20","Australia","54973","26145","imgNWTK/square.png","imgNWTK/triangle.png","imgNWTK/square.png","imgNWTK/triangle.png","noninfo","optim","2.82","","54","2","1","0","null","imgNWTK/square.png","imgNWTK/triangle.png","imgNWTK/triangle.png","121","0","","",""
"3428","","","bandit-task-exp6","65","1713970","0.0-10.0-0.9","male","20","Australia","54973","26145","imgNWTK/square.png","imgNWTK/triangle.png","imgNWTK/square.png","imgNWTK/triangle.png","noninfo","optim","2.82","","55","2","2","128","null","imgNWTK/triangle.png","imgNWTK/square.png","imgNWTK/triangle.png","81","0","","",""
"3941","","","bandit-task-exp6","66","1745119","0.0-10.0-0.10","male","20","Australia","54973","26145","imgNWTK/square.png","imgNWTK/triangle.png","imgNWTK/square.png","imgNWTK/triangle.png","noninfo","optim","2.82","","56","1","2","0","null","imgNWTK/square.png","imgNWTK/triangle.png","imgNWTK/square.png","21","0","","",""
"5277","","","bandit-task-exp6","67","1773001","0.0-10.0-0.11","male","20","Australia","54973","26145","imgNWTK/square.png","imgNWTK/triangle.png","imgNWTK/square.png","imgNWTK/triangle.png","noninfo","optim","2.82","","57","2","2","115","null","imgNWTK/triangle.png","imgNWTK/square.png","imgNWTK/triangle.png","92","0","","",""
"4913","","","bandit-task-exp6","68","1806868","0.0-10.0-0.12","male","20","Australia","54973","26145","imgNWTK/square.png","imgNWTK/triangle.png","imgNWTK/square.png","imgNWTK/triangle.png","noninfo","optim","2.82","","58","2","1","0","null","imgNWTK/triangle.png","imgNWTK/square.png","imgNWTK/triangle.png","92","0","","",""
"5294","","","bandit-task-exp6","69","1933867","0.0-10.0-0.13","male","20","Australia","54973","26145","imgNWTK/square.png","imgNWTK/triangle.png","imgNWTK/square.png","imgNWTK/triangle.png","noninfo","optim","2.82","","59","2","2","119","null","imgNWTK/square.png","imgNWTK/triangle.png","imgNWTK/triangle.png","0","0","","",""
"3327","","","bandit-task-exp6","70","1964817","0.0-10.0-0.14","male","20","Australia","54973","26145","imgNWTK/square.png","imgNWTK/triangle.png","imgNWTK/square.png","imgNWTK/triangle.png","noninfo","optim","2.82","","60","2","2","116","null","imgNWTK/triangle.png","imgNWTK/square.png","imgNWTK/triangle.png","21","0","","",""
"2729","<p> Congratulations, you have finished the main part of the experiment. </p><p>Before you finish, we have a few short questions about the options and outcomes you saw in the task.</p>","0","html-button-response","71","1967550","0.0-11.0","male","20","Australia","54973","26145","imgNWTK/square.png","imgNWTK/triangle.png","imgNWTK/square.png","imgNWTK/triangle.png","noninfo","optim","2.82","","","","","","","","","","","","","",""
"66196","<p><b>Now, imagine that you clicked on the below button for another 10 trials (this includes <i> BOTH WIN and NO-WIN trials</i>).</p> <img src= 'imgNWTK/square.png'></img></br></br> <p><b>Please type the reward (number of points) you would expect to receive on every trial.</br> Click start to begin.</p>","0","html-button-response","72","2033749","0.0-12.0","male","20","Australia","54973","26145","imgNWTK/square.png","imgNWTK/triangle.png","imgNWTK/square.png","imgNWTK/triangle.png","noninfo","optim","2.82","","","","","","","","","","","","","",""
"5263","","","survey-number","73","2039017","0.0-13.0-0.0","male","20","Australia","54973","26145","imgNWTK/square.png","imgNWTK/triangle.png","imgNWTK/square.png","imgNWTK/triangle.png","noninfo","optim","2.82","{""undefined"":""21""}","","","","","","","","","","","","imgNWTK/square.png",""
"2577","","","survey-number","74","2041599","0.0-13.0-0.1","male","20","Australia","54973","26145","imgNWTK/square.png","imgNWTK/triangle.png","imgNWTK/square.png","imgNWTK/triangle.png","noninfo","optim","2.82","{""undefined"":""0""}","","","","","","","","","","","","imgNWTK/square.png",""
"2029.5","","","survey-number","75","2043633","0.0-13.0-0.2","male","20","Australia","54973","26145","imgNWTK/square.png","imgNWTK/triangle.png","imgNWTK/square.png","imgNWTK/triangle.png","noninfo","optim","2.82","{""undefined"":""122""}","","","","","","","","","","","","imgNWTK/square.png",""
"1428.7000000001863","","","survey-number","76","2045066","0.0-13.0-0.3","male","20","Australia","54973","26145","imgNWTK/square.png","imgNWTK/triangle.png","imgNWTK/square.png","imgNWTK/triangle.png","noninfo","optim","2.82","{""undefined"":""0""}","","","","","","","","","","","","imgNWTK/square.png",""
"1461.8000000002794","","","survey-number","77","2046533","0.0-13.0-0.4","male","20","Australia","54973","26145","imgNWTK/square.png","imgNWTK/triangle.png","imgNWTK/square.png","imgNWTK/triangle.png","noninfo","optim","2.82","{""undefined"":""0""}","","","","","","","","","","","","imgNWTK/square.png",""
"1329.2999999998137","","","survey-number","78","2047866","0.0-13.0-0.5","male","20","Australia","54973","26145","imgNWTK/square.png","imgNWTK/triangle.png","imgNWTK/square.png","imgNWTK/triangle.png","noninfo","optim","2.82","{""undefined"":""0""}","","","","","","","","","","","","imgNWTK/square.png",""
"1662.7000000001863","","","survey-number","79","2049533","0.0-13.0-0.6","male","20","Australia","54973","26145","imgNWTK/square.png","imgNWTK/triangle.png","imgNWTK/square.png","imgNWTK/triangle.png","noninfo","optim","2.82","{""undefined"":""81""}","","","","","","","","","","","","imgNWTK/square.png",""
"1894.6000000000931","","","survey-number","80","2051434","0.0-13.0-0.7","male","20","Australia","54973","26145","imgNWTK/square.png","imgNWTK/triangle.png","imgNWTK/square.png","imgNWTK/triangle.png","noninfo","optim","2.82","{""undefined"":""96""}","","","","","","","","","","","","imgNWTK/square.png",""
"1528.2000000001863","","","survey-number","81","2052967","0.0-13.0-0.8","male","20","Australia","54973","26145","imgNWTK/square.png","imgNWTK/triangle.png","imgNWTK/square.png","imgNWTK/triangle.png","noninfo","optim","2.82","{""undefined"":""0""}","","","","","","","","","","","","imgNWTK/square.png",""
"1545.8999999999069","","","survey-number","82","2054517","0.0-13.0-0.9","male","20","Australia","54973","26145","imgNWTK/square.png","imgNWTK/triangle.png","imgNWTK/square.png","imgNWTK/triangle.png","noninfo","optim","2.82","{""undefined"":""0""}","","","","","","","","","","","","imgNWTK/square.png",""
"1363","<p><b>Imagine that you clicked on the below button for another 10 trials (this includes <i> both WIN and NO-WIN trials</i>).</p> <img src= 'imgNWTK/triangle.png'></img></br></br> <p><b>Please type the reward (number of points) you would expect to receive on every trial.</br> Click start to begin.</p>","0","html-button-response","83","2055883","0.0-14.0","male","20","Australia","54973","26145","imgNWTK/square.png","imgNWTK/triangle.png","imgNWTK/square.png","imgNWTK/triangle.png","noninfo","optim","2.82","","","","","","","","","","","","","",""
"2279.399999999907","","","survey-number","84","2058167","0.0-15.0-0.0","male","20","Australia","54973","26145","imgNWTK/square.png","imgNWTK/triangle.png","imgNWTK/square.png","imgNWTK/triangle.png","noninfo","optim","2.82","{""undefined"":""21""}","","","","","","","","","","","","imgNWTK/triangle.png",""
"2727.399999999907","","","survey-number","85","2060900","0.0-15.0-0.1","male","20","Australia","54973","26145","imgNWTK/square.png","imgNWTK/triangle.png","imgNWTK/square.png","imgNWTK/triangle.png","noninfo","optim","2.82","{""undefined"":""2""}","","","","","","","","","","","","imgNWTK/triangle.png",""
"528.6000000000931","","","survey-number","86","2061433","0.0-15.0-0.2","male","20","Australia","54973","26145","imgNWTK/square.png","imgNWTK/triangle.png","imgNWTK/square.png","imgNWTK/triangle.png","noninfo","optim","2.82","{""undefined"":""22""}","","","","","","","","","","","","imgNWTK/triangle.png",""
"110.60000000009313","","","survey-number","87","2061548","0.0-15.0-0.3","male","20","Australia","54973","26145","imgNWTK/square.png","imgNWTK/triangle.png","imgNWTK/square.png","imgNWTK/triangle.png","noninfo","optim","2.82","{""undefined"":""2""}","","","","","","","","","","","","imgNWTK/triangle.png",""
"147.10000000009313","","","survey-number","88","2061698","0.0-15.0-0.4","male","20","Australia","54973","26145","imgNWTK/square.png","imgNWTK/triangle.png","imgNWTK/square.png","imgNWTK/triangle.png","noninfo","optim","2.82","{""undefined"":""2""}","","","","","","","","","","","","imgNWTK/triangle.png",""
"297.60000000009313","","","survey-number","89","2061998","0.0-15.0-0.5","male","20","Australia","54973","26145","imgNWTK/square.png","imgNWTK/triangle.png","imgNWTK/square.png","imgNWTK/triangle.png","noninfo","optim","2.82","{""undefined"":""2""}","","","","","","","","","","","","imgNWTK/triangle.png",""
"299.20000000018626","","","survey-number","90","2062299","0.0-15.0-0.6","male","20","Australia","54973","26145","imgNWTK/square.png","imgNWTK/triangle.png","imgNWTK/square.png","imgNWTK/triangle.png","noninfo","optim","2.82","{""undefined"":""2""}","","","","","","","","","","","","imgNWTK/triangle.png",""
"2330.5","","","survey-number","91","2064632","0.0-15.0-0.7","male","20","Australia","54973","26145","imgNWTK/square.png","imgNWTK/triangle.png","imgNWTK/square.png","imgNWTK/triangle.png","noninfo","optim","2.82","{""undefined"":""2""}","","","","","","","","","","","","imgNWTK/triangle.png",""
"1162.5","","","survey-number","92","2065799","0.0-15.0-0.8","male","20","Australia","54973","26145","imgNWTK/square.png","imgNWTK/triangle.png","imgNWTK/square.png","imgNWTK/triangle.png","noninfo","optim","2.82","{""undefined"":""0""}","","","","","","","","","","","","imgNWTK/triangle.png",""
"946.2999999998137","","","survey-number","93","2066748","0.0-15.0-0.9","male","20","Australia","54973","26145","imgNWTK/square.png","imgNWTK/triangle.png","imgNWTK/square.png","imgNWTK/triangle.png","noninfo","optim","2.82","{""undefined"":""0""}","","","","","","","","","","","","imgNWTK/triangle.png",""
"13379.899999999907","","","survey-number","94","2080133","0.0-16.0","male","20","Australia","54973","26145","imgNWTK/square.png","imgNWTK/triangle.png","imgNWTK/square.png","imgNWTK/triangle.png","noninfo","optim","2.82","{""undefined"":""2""}","","","","","","","","","","","","","imgNWTK/triangle.png"
"1761.1000000000931","","","survey-number","95","2081899","0.0-17.0","male","20","Australia","54973","26145","imgNWTK/square.png","imgNWTK/triangle.png","imgNWTK/square.png","imgNWTK/triangle.png","noninfo","optim","2.82","{""undefined"":""0""}","","","","","","","","","","","","","imgNWTK/square.png"
"10880","<p style=""text-align:left;"">Great! We are almost at the end of the study... (Please do not close the browser window yet.)</p><p> Your final points balance is 2823, which equals to a bonus payment of $2.82. Please collect your payment from Mathews Building Room 721 (Mon-Fri 9am-5pm); please email amy.x.li@unsw.edu.au at least 24 hours prior to collection so that this is ready for you.</p><p style=""text-align:left;"">To view the debriefing form, please click <a href=""./imgNWTK/debrief_3205.pdf"" target=""_blank"">here</a> to download a copy.</p><p style=""text-align:left;"">Then, <b>please click the below button</b> to confirm that you have received your debrief and to complete the study. Upon clicking ""Finish!"", your SONA credit will be automatically assigned.</p>","0","html-button-response","96","2092782","0.0-18.0","male","20","Australia","54973","26145","imgNWTK/square.png","imgNWTK/triangle.png","imgNWTK/square.png","imgNWTK/triangle.png","noninfo","optim","2.82","","","","","","","","","","","","","",""
