"rt","stimulus","button_pressed","trial_type","trial_index","time_elapsed","internal_node_id","gender","age","language","PID","sona_id","subStim","optStim","stim1","stim2","infoCond","optimCond","bonus","responses","banditTrial","choice","cue","feedback","estimateData","leftOption","rightOption","choiceName","leftInput","rightInput","key_press","postQ","singleEst"
"1757","<p>Thank you for signing up to participate in SONA Study 465! <br> During this study, please focus on the experiment and refrain from activities such as:</p>- <b>Switching to other tabs on your browser (this will be monitored via the experiment)</br> - Using your mobile phone/cell phone</br> - Communicating with others</br></br></b><p>This way, you are helping to provide data that is useful for psychological research. We thank you for your cooperation!</p>","0","html-button-response","0","1759","0.0-0.0","female","18","Australia","33622","25032","imgNWTK/square.png","imgNWTK/triangle.png","imgNWTK/square.png","imgNWTK/triangle.png","noninfo","optim","3.12","","","","","","","","","","","","","",""
"699","<p>Welcome to the experiment!</p><p>You will now read some instructions about the task. Press the 'Next' button to continue. </p>","0","html-button-response","1","2460","0.0-1.0","female","18","Australia","33622","25032","imgNWTK/square.png","imgNWTK/triangle.png","imgNWTK/square.png","imgNWTK/triangle.png","noninfo","optim","3.12","","","","","","","","","","","","","",""
"11188","<p> On each trial throughout the experiment you will choose between two options, </br>a <b>Black Square </b> and <b> Black Triangle </b>, as seen below.</p><div><div style= 'float: left; width: 300px; margin: 10px 10px;'><img src= 'imgNWTK/square.png'></img></div><div style= 'float: right; width: 300px; margin: 10px 10px;'><img src= 'imgNWTK/triangle.png'></img></div></div><br/><br/><br/><br/><br/><br/><br/><br/><br/><br/><br/><p>Each option results in winning points or receiving 0 points.</br>There is a 50% chance of either winning or receiving 0 points.</p><p>You won't receive the outcome until after a <b> 20 second delay</b>.</p>","0","html-button-response","2","13651","0.0-2.0-0.0","female","18","Australia","33622","25032","imgNWTK/square.png","imgNWTK/triangle.png","imgNWTK/square.png","imgNWTK/triangle.png","noninfo","optim","3.12","","","","","","","","","","","","","",""
"28967","<img src= 'imgNWTK/NonInfoDiagram.png'></img><p>As seen above, whether you choose the square or triangle, you will receive a coloured circle after the choice. </p> <p>This circle will be on screen for 20 seconds until you win points or receive 0 points.</p><p>The coloured circle depends on which option you chose. </br> In the above example, choosing a triangle leads to a green circle and choosing the square leads to a red circle.</p>Please note: the circles in your task will be different to the above colours.</br></br>","0","html-button-response","3","42619","0.0-2.0-1.0","female","18","Australia","33622","25032","imgNWTK/square.png","imgNWTK/triangle.png","imgNWTK/square.png","imgNWTK/triangle.png","noninfo","optim","3.12","","","","","","","","","","","","","",""
"7768","<img src= 'cues/winTrials_noInfo.png' width = '1200'></img><p>To reiterate, 50% of the outcomes of each option will be WIN TRIALS, and the other 50% will be NO-WIN TRIALS.","0","html-button-response","4","50389","0.0-2.0-2.0","female","18","Australia","33622","25032","imgNWTK/square.png","imgNWTK/triangle.png","imgNWTK/square.png","imgNWTK/triangle.png","noninfo","optim","3.12","","","","","","","","","","","","","",""
"12430","<p> There will be <b>four blocks</b> in the experiment.</br>You will be given a short 15 second break between each block.</p><p><b>The points and the options will remain the same between the blocks.</b></p>The blocks are there just to give you a small break.</br></br></br></br><p>The points you earn in the task are also equal to <b> actual money</b>.</br> <b>1000 points is equal to $1 AUD</b></p><p>This is the rate you will be paid at the experiment's end.","0","html-button-response","5","62822","0.0-2.0-3.0","female","18","Australia","33622","25032","imgNWTK/square.png","imgNWTK/triangle.png","imgNWTK/square.png","imgNWTK/triangle.png","noninfo","optim","3.12","","","","","","","","","","","","","",""
"16901","","","survey-multi-choice","6","79734","0.0-2.0-4.0","female","18","Australia","33622","25032","imgNWTK/square.png","imgNWTK/triangle.png","imgNWTK/square.png","imgNWTK/triangle.png","noninfo","optim","3.12","{""Q0"":""20 Seconds"",""Q1"":""True"",""Q2"":""Equally""}","","","","","","","","","","","","",""
"1936","<p> Well done, all your answers were correct! <br> The experiment is about to start now. <br/> Click start to continue, or email your researcher <b>(amy.x.li@unsw.edu.au)</b> if you have any questions before starting.","0","html-button-response","7","81677","0.0-3.0","female","18","Australia","33622","25032","imgNWTK/square.png","imgNWTK/triangle.png","imgNWTK/square.png","imgNWTK/triangle.png","noninfo","optim","3.12","","","","","","","","","","","","","",""
"4132","","","bandit-task-exp6","8","108275","0.0-4.0-0.0","female","18","Australia","33622","25032","imgNWTK/square.png","imgNWTK/triangle.png","imgNWTK/square.png","imgNWTK/triangle.png","noninfo","optim","3.12","","1","1","2","0","null","imgNWTK/triangle.png","imgNWTK/square.png","imgNWTK/square.png","NaN","NaN","","",""
"2150","","","bandit-task-exp6","9","134072","0.0-4.0-0.1","female","18","Australia","33622","25032","imgNWTK/square.png","imgNWTK/triangle.png","imgNWTK/square.png","imgNWTK/triangle.png","noninfo","optim","3.12","","2","2","2","126","null","imgNWTK/square.png","imgNWTK/triangle.png","imgNWTK/triangle.png","NaN","NaN","","",""
"704","","","bandit-task-exp6","10","157230","0.0-4.0-0.2","female","18","Australia","33622","25032","imgNWTK/square.png","imgNWTK/triangle.png","imgNWTK/square.png","imgNWTK/triangle.png","noninfo","optim","3.12","","3","1","2","0","null","imgNWTK/square.png","imgNWTK/triangle.png","imgNWTK/square.png","NaN","NaN","","",""
"673","","","bandit-task-exp6","11","180306","0.0-4.0-0.3","female","18","Australia","33622","25032","imgNWTK/square.png","imgNWTK/triangle.png","imgNWTK/square.png","imgNWTK/triangle.png","noninfo","optim","3.12","","4","1","2","0","null","imgNWTK/square.png","imgNWTK/triangle.png","imgNWTK/square.png","NaN","NaN","","",""
"2898","","","bandit-task-exp6","12","205619","0.0-4.0-0.4","female","18","Australia","33622","25032","imgNWTK/square.png","imgNWTK/triangle.png","imgNWTK/square.png","imgNWTK/triangle.png","noninfo","optim","3.12","","5","2","1","0","null","imgNWTK/square.png","imgNWTK/triangle.png","imgNWTK/triangle.png","NaN","NaN","","",""
"1141","","","bandit-task-exp6","13","229319","0.0-4.0-0.5","female","18","Australia","33622","25032","imgNWTK/square.png","imgNWTK/triangle.png","imgNWTK/square.png","imgNWTK/triangle.png","noninfo","optim","3.12","","6","2","2","116","null","imgNWTK/triangle.png","imgNWTK/square.png","imgNWTK/triangle.png","NaN","NaN","","",""
"1108","","","bandit-task-exp6","14","253067","0.0-4.0-0.6","female","18","Australia","33622","25032","imgNWTK/square.png","imgNWTK/triangle.png","imgNWTK/square.png","imgNWTK/triangle.png","noninfo","optim","3.12","","7","2","1","0","null","imgNWTK/triangle.png","imgNWTK/square.png","imgNWTK/triangle.png","NaN","NaN","","",""
"1350","","","bandit-task-exp6","15","276999","0.0-4.0-0.7","female","18","Australia","33622","25032","imgNWTK/square.png","imgNWTK/triangle.png","imgNWTK/square.png","imgNWTK/triangle.png","noninfo","optim","3.12","","8","2","1","0","null","imgNWTK/square.png","imgNWTK/triangle.png","imgNWTK/triangle.png","NaN","NaN","","",""
"1375","","","bandit-task-exp6","16","302628","0.0-4.0-0.8","female","18","Australia","33622","25032","imgNWTK/square.png","imgNWTK/triangle.png","imgNWTK/square.png","imgNWTK/triangle.png","noninfo","optim","3.12","","9","1","1","81","null","imgNWTK/triangle.png","imgNWTK/square.png","imgNWTK/square.png","NaN","NaN","","",""
"1413","","","bandit-task-exp6","17","325888","0.0-4.0-0.9","female","18","Australia","33622","25032","imgNWTK/square.png","imgNWTK/triangle.png","imgNWTK/square.png","imgNWTK/triangle.png","noninfo","optim","3.12","","10","2","1","0","null","imgNWTK/triangle.png","imgNWTK/square.png","imgNWTK/triangle.png","NaN","NaN","","",""
"825","","","bandit-task-exp6","18","349688","0.0-4.0-0.10","female","18","Australia","33622","25032","imgNWTK/square.png","imgNWTK/triangle.png","imgNWTK/square.png","imgNWTK/triangle.png","noninfo","optim","3.12","","11","1","2","0","null","imgNWTK/triangle.png","imgNWTK/square.png","imgNWTK/square.png","NaN","NaN","","",""
"1592","","","bandit-task-exp6","19","373506","0.0-4.0-0.11","female","18","Australia","33622","25032","imgNWTK/square.png","imgNWTK/triangle.png","imgNWTK/square.png","imgNWTK/triangle.png","noninfo","optim","3.12","","12","2","2","124","null","imgNWTK/square.png","imgNWTK/triangle.png","imgNWTK/triangle.png","NaN","NaN","","",""
"1204","","","bandit-task-exp6","20","396593","0.0-4.0-0.12","female","18","Australia","33622","25032","imgNWTK/square.png","imgNWTK/triangle.png","imgNWTK/square.png","imgNWTK/triangle.png","noninfo","optim","3.12","","13","1","1","72","null","imgNWTK/square.png","imgNWTK/triangle.png","imgNWTK/square.png","NaN","NaN","","",""
"4272","","","bandit-task-exp6","21","489296","0.0-4.0-0.13","female","18","Australia","33622","25032","imgNWTK/square.png","imgNWTK/triangle.png","imgNWTK/square.png","imgNWTK/triangle.png","noninfo","optim","3.12","","14","2","1","0","null","imgNWTK/square.png","imgNWTK/triangle.png","imgNWTK/triangle.png","NaN","NaN","","",""
"754","","","bandit-task-exp6","22","563712","0.0-4.0-0.14","female","18","Australia","33622","25032","imgNWTK/square.png","imgNWTK/triangle.png","imgNWTK/square.png","imgNWTK/triangle.png","noninfo","optim","3.12","","15","1","1","78","null","imgNWTK/triangle.png","imgNWTK/square.png","imgNWTK/square.png","NaN","NaN","","",""
"null","<p><b> Congratulations, you have finished this block. </b> </p><p>Please take a short break before moving onto the next block.</p><p>The next block will start after a 15 second break.</p><b>Remember, the point rewards are the same between blocks","","html-keyboard-response","23","578716","0.0-5.0","female","18","Australia","33622","25032","imgNWTK/square.png","imgNWTK/triangle.png","imgNWTK/square.png","imgNWTK/triangle.png","noninfo","optim","3.12","","","","","","","","","","","","null","",""
"2019","","","bandit-task-exp6","24","603086","0.0-6.0-0.0","female","18","Australia","33622","25032","imgNWTK/square.png","imgNWTK/triangle.png","imgNWTK/square.png","imgNWTK/triangle.png","noninfo","optim","3.12","","16","1","1","88","null","imgNWTK/square.png","imgNWTK/triangle.png","imgNWTK/square.png","NaN","NaN","","",""
"671","","","bandit-task-exp6","25","638622","0.0-6.0-0.1","female","18","Australia","33622","25032","imgNWTK/square.png","imgNWTK/triangle.png","imgNWTK/square.png","imgNWTK/triangle.png","noninfo","optim","3.12","","17","1","2","0","null","imgNWTK/square.png","imgNWTK/triangle.png","imgNWTK/square.png","NaN","NaN","","",""
"833","","","bandit-task-exp6","26","662024","0.0-6.0-0.2","female","18","Australia","33622","25032","imgNWTK/square.png","imgNWTK/triangle.png","imgNWTK/square.png","imgNWTK/triangle.png","noninfo","optim","3.12","","18","1","2","0","null","imgNWTK/square.png","imgNWTK/triangle.png","imgNWTK/square.png","NaN","NaN","","",""
"696","","","bandit-task-exp6","27","700497","0.0-6.0-0.3","female","18","Australia","33622","25032","imgNWTK/square.png","imgNWTK/triangle.png","imgNWTK/square.png","imgNWTK/triangle.png","noninfo","optim","3.12","","19","2","1","0","null","imgNWTK/square.png","imgNWTK/triangle.png","imgNWTK/triangle.png","NaN","NaN","","",""
"728","","","bandit-task-exp6","28","723164","0.0-6.0-0.4","female","18","Australia","33622","25032","imgNWTK/square.png","imgNWTK/triangle.png","imgNWTK/square.png","imgNWTK/triangle.png","noninfo","optim","3.12","","20","1","2","0","null","imgNWTK/square.png","imgNWTK/triangle.png","imgNWTK/square.png","NaN","NaN","","",""
"1189","","","bandit-task-exp6","29","756680","0.0-6.0-0.5","female","18","Australia","33622","25032","imgNWTK/square.png","imgNWTK/triangle.png","imgNWTK/square.png","imgNWTK/triangle.png","noninfo","optim","3.12","","21","1","2","0","null","imgNWTK/square.png","imgNWTK/triangle.png","imgNWTK/square.png","NaN","NaN","","",""
"713","","","bandit-task-exp6","30","780173","0.0-6.0-0.6","female","18","Australia","33622","25032","imgNWTK/square.png","imgNWTK/triangle.png","imgNWTK/square.png","imgNWTK/triangle.png","noninfo","optim","3.12","","22","2","2","122","null","imgNWTK/triangle.png","imgNWTK/square.png","imgNWTK/triangle.png","NaN","NaN","","",""
"1166","","","bandit-task-exp6","31","802934","0.0-6.0-0.7","female","18","Australia","33622","25032","imgNWTK/square.png","imgNWTK/triangle.png","imgNWTK/square.png","imgNWTK/triangle.png","noninfo","optim","3.12","","23","2","1","0","null","imgNWTK/triangle.png","imgNWTK/square.png","imgNWTK/triangle.png","NaN","NaN","","",""
"617","","","bandit-task-exp6","32","825916","0.0-6.0-0.8","female","18","Australia","33622","25032","imgNWTK/square.png","imgNWTK/triangle.png","imgNWTK/square.png","imgNWTK/triangle.png","noninfo","optim","3.12","","24","2","2","111","null","imgNWTK/triangle.png","imgNWTK/square.png","imgNWTK/triangle.png","NaN","NaN","","",""
"964","","","bandit-task-exp6","33","848600","0.0-6.0-0.9","female","18","Australia","33622","25032","imgNWTK/square.png","imgNWTK/triangle.png","imgNWTK/square.png","imgNWTK/triangle.png","noninfo","optim","3.12","","25","1","2","0","null","imgNWTK/square.png","imgNWTK/triangle.png","imgNWTK/square.png","NaN","NaN","","",""
"1150","","","bandit-task-exp6","34","874744","0.0-6.0-0.10","female","18","Australia","33622","25032","imgNWTK/square.png","imgNWTK/triangle.png","imgNWTK/square.png","imgNWTK/triangle.png","noninfo","optim","3.12","","26","1","2","0","null","imgNWTK/square.png","imgNWTK/triangle.png","imgNWTK/square.png","NaN","NaN","","",""
"1359","","","bandit-task-exp6","35","898335","0.0-6.0-0.11","female","18","Australia","33622","25032","imgNWTK/square.png","imgNWTK/triangle.png","imgNWTK/square.png","imgNWTK/triangle.png","noninfo","optim","3.12","","27","2","2","125","null","imgNWTK/square.png","imgNWTK/triangle.png","imgNWTK/triangle.png","NaN","NaN","","",""
"915","","","bandit-task-exp6","36","921280","0.0-6.0-0.12","female","18","Australia","33622","25032","imgNWTK/square.png","imgNWTK/triangle.png","imgNWTK/square.png","imgNWTK/triangle.png","noninfo","optim","3.12","","28","2","1","0","null","imgNWTK/triangle.png","imgNWTK/square.png","imgNWTK/triangle.png","NaN","NaN","","",""
"858","","","bandit-task-exp6","37","943770","0.0-6.0-0.13","female","18","Australia","33622","25032","imgNWTK/square.png","imgNWTK/triangle.png","imgNWTK/square.png","imgNWTK/triangle.png","noninfo","optim","3.12","","29","2","2","110","null","imgNWTK/square.png","imgNWTK/triangle.png","imgNWTK/triangle.png","NaN","NaN","","",""
"1101","","","bandit-task-exp6","38","971128","0.0-6.0-0.14","female","18","Australia","33622","25032","imgNWTK/square.png","imgNWTK/triangle.png","imgNWTK/square.png","imgNWTK/triangle.png","noninfo","optim","3.12","","30","1","2","0","null","imgNWTK/square.png","imgNWTK/triangle.png","imgNWTK/square.png","NaN","NaN","","",""
"null","<p><b> Congratulations, you have finished this block. </b> </p><p>Please take a short break before moving onto the next block.</p><p>The next block will start after a 15 second break.</p><b>Remember, the point rewards are the same between blocks","","html-keyboard-response","39","986131","0.0-7.0","female","18","Australia","33622","25032","imgNWTK/square.png","imgNWTK/triangle.png","imgNWTK/square.png","imgNWTK/triangle.png","noninfo","optim","3.12","","","","","","","","","","","","null","",""
"1786","","","bandit-task-exp6","40","1010454","0.0-8.0-0.0","female","18","Australia","33622","25032","imgNWTK/square.png","imgNWTK/triangle.png","imgNWTK/square.png","imgNWTK/triangle.png","noninfo","optim","3.12","","31","1","2","0","null","imgNWTK/triangle.png","imgNWTK/square.png","imgNWTK/square.png","NaN","NaN","","",""
"1083","","","bandit-task-exp6","41","1033857","0.0-8.0-0.1","female","18","Australia","33622","25032","imgNWTK/square.png","imgNWTK/triangle.png","imgNWTK/square.png","imgNWTK/triangle.png","noninfo","optim","3.12","","32","2","2","123","null","imgNWTK/square.png","imgNWTK/triangle.png","imgNWTK/triangle.png","NaN","NaN","","",""
"753","","","bandit-task-exp6","42","1056563","0.0-8.0-0.2","female","18","Australia","33622","25032","imgNWTK/square.png","imgNWTK/triangle.png","imgNWTK/square.png","imgNWTK/triangle.png","noninfo","optim","3.12","","33","1","1","71","null","imgNWTK/square.png","imgNWTK/triangle.png","imgNWTK/square.png","NaN","NaN","","",""
"1447","","","bandit-task-exp6","43","1085924","0.0-8.0-0.3","female","18","Australia","33622","25032","imgNWTK/square.png","imgNWTK/triangle.png","imgNWTK/square.png","imgNWTK/triangle.png","noninfo","optim","3.12","","34","2","2","118","null","imgNWTK/triangle.png","imgNWTK/square.png","imgNWTK/triangle.png","NaN","NaN","","",""
"1535","","","bandit-task-exp6","44","1111320","0.0-8.0-0.4","female","18","Australia","33622","25032","imgNWTK/square.png","imgNWTK/triangle.png","imgNWTK/square.png","imgNWTK/triangle.png","noninfo","optim","3.12","","35","2","2","124","null","imgNWTK/square.png","imgNWTK/triangle.png","imgNWTK/triangle.png","NaN","NaN","","",""
"810","","","bandit-task-exp6","45","1140510","0.0-8.0-0.5","female","18","Australia","33622","25032","imgNWTK/square.png","imgNWTK/triangle.png","imgNWTK/square.png","imgNWTK/triangle.png","noninfo","optim","3.12","","36","2","1","0","null","imgNWTK/triangle.png","imgNWTK/square.png","imgNWTK/triangle.png","NaN","NaN","","",""
"833","","","bandit-task-exp6","46","1175428","0.0-8.0-0.6","female","18","Australia","33622","25032","imgNWTK/square.png","imgNWTK/triangle.png","imgNWTK/square.png","imgNWTK/triangle.png","noninfo","optim","3.12","","37","1","1","86","null","imgNWTK/square.png","imgNWTK/triangle.png","imgNWTK/square.png","NaN","NaN","","",""
"681","","","bandit-task-exp6","47","1198570","0.0-8.0-0.7","female","18","Australia","33622","25032","imgNWTK/square.png","imgNWTK/triangle.png","imgNWTK/square.png","imgNWTK/triangle.png","noninfo","optim","3.12","","38","2","1","0","null","imgNWTK/triangle.png","imgNWTK/square.png","imgNWTK/triangle.png","NaN","NaN","","",""
"600","","","bandit-task-exp6","48","1231266","0.0-8.0-0.8","female","18","Australia","33622","25032","imgNWTK/square.png","imgNWTK/triangle.png","imgNWTK/square.png","imgNWTK/triangle.png","noninfo","optim","3.12","","39","1","2","0","null","imgNWTK/square.png","imgNWTK/triangle.png","imgNWTK/square.png","NaN","NaN","","",""
"883","","","bandit-task-exp6","49","1254012","0.0-8.0-0.9","female","18","Australia","33622","25032","imgNWTK/square.png","imgNWTK/triangle.png","imgNWTK/square.png","imgNWTK/triangle.png","noninfo","optim","3.12","","40","2","1","0","null","imgNWTK/triangle.png","imgNWTK/square.png","imgNWTK/triangle.png","NaN","NaN","","",""
"1091","","","bandit-task-exp6","50","1277666","0.0-8.0-0.10","female","18","Australia","33622","25032","imgNWTK/square.png","imgNWTK/triangle.png","imgNWTK/square.png","imgNWTK/triangle.png","noninfo","optim","3.12","","41","1","1","84","null","imgNWTK/square.png","imgNWTK/triangle.png","imgNWTK/square.png","NaN","NaN","","",""
"689","","","bandit-task-exp6","51","1300655","0.0-8.0-0.11","female","18","Australia","33622","25032","imgNWTK/square.png","imgNWTK/triangle.png","imgNWTK/square.png","imgNWTK/triangle.png","noninfo","optim","3.12","","42","2","1","0","null","imgNWTK/triangle.png","imgNWTK/square.png","imgNWTK/triangle.png","NaN","NaN","","",""
"987","","","bandit-task-exp6","52","1324757","0.0-8.0-0.12","female","18","Australia","33622","25032","imgNWTK/square.png","imgNWTK/triangle.png","imgNWTK/square.png","imgNWTK/triangle.png","noninfo","optim","3.12","","43","2","2","111","null","imgNWTK/triangle.png","imgNWTK/square.png","imgNWTK/triangle.png","NaN","NaN","","",""
"857","","","bandit-task-exp6","53","1348673","0.0-8.0-0.13","female","18","Australia","33622","25032","imgNWTK/square.png","imgNWTK/triangle.png","imgNWTK/square.png","imgNWTK/triangle.png","noninfo","optim","3.12","","44","2","2","126","null","imgNWTK/triangle.png","imgNWTK/square.png","imgNWTK/triangle.png","NaN","NaN","","",""
"1892","","","bandit-task-exp6","54","1375717","0.0-8.0-0.14","female","18","Australia","33622","25032","imgNWTK/square.png","imgNWTK/triangle.png","imgNWTK/square.png","imgNWTK/triangle.png","noninfo","optim","3.12","","45","2","1","0","null","imgNWTK/square.png","imgNWTK/triangle.png","imgNWTK/triangle.png","NaN","NaN","","",""
"null","<p><b> Congratulations, you have finished this block. </b> </p><p>Please take a short break before moving onto the next block.</p><p>The next block will start after a 15 second break.</p><b>Remember, the point rewards are the same between blocks","","html-keyboard-response","55","1390724","0.0-9.0","female","18","Australia","33622","25032","imgNWTK/square.png","imgNWTK/triangle.png","imgNWTK/square.png","imgNWTK/triangle.png","noninfo","optim","3.12","","","","","","","","","","","","null","",""
"29899","","","bandit-task-exp6","56","1445988","0.0-10.0-0.0","female","18","Australia","33622","25032","imgNWTK/square.png","imgNWTK/triangle.png","imgNWTK/square.png","imgNWTK/triangle.png","noninfo","optim","3.12","","46","2","2","124","null","imgNWTK/square.png","imgNWTK/triangle.png","imgNWTK/triangle.png","86","126","","",""
"14087","","","bandit-task-exp6","57","1485608","0.0-10.0-0.1","female","18","Australia","33622","25032","imgNWTK/square.png","imgNWTK/triangle.png","imgNWTK/square.png","imgNWTK/triangle.png","noninfo","optim","3.12","","47","1","1","85","null","imgNWTK/square.png","imgNWTK/triangle.png","imgNWTK/square.png","86","124","","",""
"10190","","","bandit-task-exp6","58","1520190","0.0-10.0-0.2","female","18","Australia","33622","25032","imgNWTK/square.png","imgNWTK/triangle.png","imgNWTK/square.png","imgNWTK/triangle.png","noninfo","optim","3.12","","48","1","2","0","null","imgNWTK/square.png","imgNWTK/triangle.png","imgNWTK/square.png","85","96","","",""
"10738","","","bandit-task-exp6","59","1553786","0.0-10.0-0.3","female","18","Australia","33622","25032","imgNWTK/square.png","imgNWTK/triangle.png","imgNWTK/square.png","imgNWTK/triangle.png","noninfo","optim","3.12","","49","2","2","126","null","imgNWTK/square.png","imgNWTK/triangle.png","imgNWTK/triangle.png","86","126","","",""
"12093","","","bandit-task-exp6","60","1588504","0.0-10.0-0.4","female","18","Australia","33622","25032","imgNWTK/square.png","imgNWTK/triangle.png","imgNWTK/square.png","imgNWTK/triangle.png","noninfo","optim","3.12","","50","2","1","0","null","imgNWTK/square.png","imgNWTK/triangle.png","imgNWTK/triangle.png","100","150","","",""
"8240","","","bandit-task-exp6","61","1625670","0.0-10.0-0.5","female","18","Australia","33622","25032","imgNWTK/square.png","imgNWTK/triangle.png","imgNWTK/square.png","imgNWTK/triangle.png","noninfo","optim","3.12","","51","1","1","74","null","imgNWTK/triangle.png","imgNWTK/square.png","imgNWTK/square.png","126","92","","",""
"7064","","","bandit-task-exp6","62","1656058","0.0-10.0-0.6","female","18","Australia","33622","25032","imgNWTK/square.png","imgNWTK/triangle.png","imgNWTK/square.png","imgNWTK/triangle.png","noninfo","optim","3.12","","52","2","1","0","null","imgNWTK/square.png","imgNWTK/triangle.png","imgNWTK/triangle.png","74","86","","",""
"6101","","","bandit-task-exp6","63","1698670","0.0-10.0-0.7","female","18","Australia","33622","25032","imgNWTK/square.png","imgNWTK/triangle.png","imgNWTK/square.png","imgNWTK/triangle.png","noninfo","optim","3.12","","53","2","2","114","null","imgNWTK/triangle.png","imgNWTK/square.png","imgNWTK/triangle.png","126","92","","",""
"6052","","","bandit-task-exp6","64","1726737","0.0-10.0-0.8","female","18","Australia","33622","25032","imgNWTK/square.png","imgNWTK/triangle.png","imgNWTK/square.png","imgNWTK/triangle.png","noninfo","optim","3.12","","54","2","2","120","null","imgNWTK/triangle.png","imgNWTK/square.png","imgNWTK/triangle.png","114","96","","",""
"7074","","","bandit-task-exp6","65","1757739","0.0-10.0-0.9","female","18","Australia","33622","25032","imgNWTK/square.png","imgNWTK/triangle.png","imgNWTK/square.png","imgNWTK/triangle.png","noninfo","optim","3.12","","55","2","2","120","null","imgNWTK/triangle.png","imgNWTK/square.png","imgNWTK/triangle.png","120","90","","",""
"10327","","","bandit-task-exp6","66","1791367","0.0-10.0-0.10","female","18","Australia","33622","25032","imgNWTK/square.png","imgNWTK/triangle.png","imgNWTK/square.png","imgNWTK/triangle.png","noninfo","optim","3.12","","56","2","1","0","null","imgNWTK/square.png","imgNWTK/triangle.png","imgNWTK/triangle.png","96","120","","",""
"6157","","","bandit-task-exp6","67","1819756","0.0-10.0-0.11","female","18","Australia","33622","25032","imgNWTK/square.png","imgNWTK/triangle.png","imgNWTK/square.png","imgNWTK/triangle.png","noninfo","optim","3.12","","57","2","2","117","null","imgNWTK/triangle.png","imgNWTK/square.png","imgNWTK/triangle.png","120","86","","",""
"7986","","","bandit-task-exp6","68","1857017","0.0-10.0-0.12","female","18","Australia","33622","25032","imgNWTK/square.png","imgNWTK/triangle.png","imgNWTK/square.png","imgNWTK/triangle.png","noninfo","optim","3.12","","58","2","2","116","null","imgNWTK/square.png","imgNWTK/triangle.png","imgNWTK/triangle.png","86","120","","",""
"8357","","","bandit-task-exp6","69","1909738","0.0-10.0-0.13","female","18","Australia","33622","25032","imgNWTK/square.png","imgNWTK/triangle.png","imgNWTK/square.png","imgNWTK/triangle.png","noninfo","optim","3.12","","59","2","1","0","null","imgNWTK/triangle.png","imgNWTK/square.png","imgNWTK/triangle.png","120","86","","",""
"5271","","","bandit-task-exp6","70","1937955","0.0-10.0-0.14","female","18","Australia","33622","25032","imgNWTK/square.png","imgNWTK/triangle.png","imgNWTK/square.png","imgNWTK/triangle.png","noninfo","optim","3.12","","60","2","2","129","null","imgNWTK/triangle.png","imgNWTK/square.png","imgNWTK/triangle.png","120","86","","",""
"2854","<p> Congratulations, you have finished the main part of the experiment. </p><p>Before you finish, we have a few short questions about the options and outcomes you saw in the task.</p>","0","html-button-response","71","1940812","0.0-11.0","female","18","Australia","33622","25032","imgNWTK/square.png","imgNWTK/triangle.png","imgNWTK/square.png","imgNWTK/triangle.png","noninfo","optim","3.12","","","","","","","","","","","","","",""
"9310","<p><b>Now, imagine that you clicked on the below button for another 10 trials (this includes <i> BOTH WIN and NO-WIN trials</i>).</p> <img src= 'imgNWTK/triangle.png'></img></br></br> <p><b>Please type the reward (number of points) you would expect to receive on every trial.</br> Click start to begin.</p>","0","html-button-response","72","1950125","0.0-12.0","female","18","Australia","33622","25032","imgNWTK/square.png","imgNWTK/triangle.png","imgNWTK/square.png","imgNWTK/triangle.png","noninfo","optim","3.12","","","","","","","","","","","","","",""
"8837.599999964237","","","survey-number","73","1958973","0.0-13.0-0.0","female","18","Australia","33622","25032","imgNWTK/square.png","imgNWTK/triangle.png","imgNWTK/square.png","imgNWTK/triangle.png","noninfo","optim","3.12","{""undefined"":""126""}","","","","","","","","","","","","imgNWTK/triangle.png",""
"4274.699999988079","","","survey-number","74","1963254","0.0-13.0-0.1","female","18","Australia","33622","25032","imgNWTK/square.png","imgNWTK/triangle.png","imgNWTK/square.png","imgNWTK/triangle.png","noninfo","optim","3.12","{""undefined"":""118""}","","","","","","","","","","","","imgNWTK/triangle.png",""
"3279.199999988079","","","survey-number","75","1966539","0.0-13.0-0.2","female","18","Australia","33622","25032","imgNWTK/square.png","imgNWTK/triangle.png","imgNWTK/square.png","imgNWTK/triangle.png","noninfo","optim","3.12","{""undefined"":""0""}","","","","","","","","","","","","imgNWTK/triangle.png",""
"2060.800000011921","","","survey-number","76","1968605","0.0-13.0-0.3","female","18","Australia","33622","25032","imgNWTK/square.png","imgNWTK/triangle.png","imgNWTK/square.png","imgNWTK/triangle.png","noninfo","optim","3.12","{""undefined"":""0""}","","","","","","","","","","","","imgNWTK/triangle.png",""
"2439.2999999523163","","","survey-number","77","1971050","0.0-13.0-0.4","female","18","Australia","33622","25032","imgNWTK/square.png","imgNWTK/triangle.png","imgNWTK/square.png","imgNWTK/triangle.png","noninfo","optim","3.12","{""undefined"":""126""}","","","","","","","","","","","","imgNWTK/triangle.png",""
"2689.900000035763","","","survey-number","78","1973746","0.0-13.0-0.5","female","18","Australia","33622","25032","imgNWTK/square.png","imgNWTK/triangle.png","imgNWTK/square.png","imgNWTK/triangle.png","noninfo","optim","3.12","{""undefined"":""0""}","","","","","","","","","","","","imgNWTK/triangle.png",""
"2681.899999976158","","","survey-number","79","1976433","0.0-13.0-0.6","female","18","Australia","33622","25032","imgNWTK/square.png","imgNWTK/triangle.png","imgNWTK/square.png","imgNWTK/triangle.png","noninfo","optim","3.12","{""undefined"":""118""}","","","","","","","","","","","","imgNWTK/triangle.png",""
"5234.099999964237","","","survey-number","80","1981673","0.0-13.0-0.7","female","18","Australia","33622","25032","imgNWTK/square.png","imgNWTK/triangle.png","imgNWTK/square.png","imgNWTK/triangle.png","noninfo","optim","3.12","{""undefined"":""126""}","","","","","","","","","","","","imgNWTK/triangle.png",""
"1969.199999988079","","","survey-number","81","1983649","0.0-13.0-0.8","female","18","Australia","33622","25032","imgNWTK/square.png","imgNWTK/triangle.png","imgNWTK/square.png","imgNWTK/triangle.png","noninfo","optim","3.12","{""undefined"":""0""}","","","","","","","","","","","","imgNWTK/triangle.png",""
"2859.699999988079","","","survey-number","82","1986514","0.0-13.0-0.9","female","18","Australia","33622","25032","imgNWTK/square.png","imgNWTK/triangle.png","imgNWTK/square.png","imgNWTK/triangle.png","noninfo","optim","3.12","{""undefined"":""126""}","","","","","","","","","","","","imgNWTK/triangle.png",""
"1247","<p><b>Imagine that you clicked on the below button for another 10 trials (this includes <i> both WIN and NO-WIN trials</i>).</p> <img src= 'imgNWTK/square.png'></img></br></br> <p><b>Please type the reward (number of points) you would expect to receive on every trial.</br> Click start to begin.</p>","0","html-button-response","83","1987764","0.0-14.0","female","18","Australia","33622","25032","imgNWTK/square.png","imgNWTK/triangle.png","imgNWTK/square.png","imgNWTK/triangle.png","noninfo","optim","3.12","","","","","","","","","","","","","",""
"2679.699999988079","","","survey-number","84","1990450","0.0-15.0-0.0","female","18","Australia","33622","25032","imgNWTK/square.png","imgNWTK/triangle.png","imgNWTK/square.png","imgNWTK/triangle.png","noninfo","optim","3.12","{""undefined"":""0""}","","","","","","","","","","","","imgNWTK/square.png",""
"2048.400000035763","","","survey-number","85","1992502","0.0-15.0-0.1","female","18","Australia","33622","25032","imgNWTK/square.png","imgNWTK/triangle.png","imgNWTK/square.png","imgNWTK/triangle.png","noninfo","optim","3.12","{""undefined"":""86""}","","","","","","","","","","","","imgNWTK/square.png",""
"2778.599999964237","","","survey-number","86","1995286","0.0-15.0-0.2","female","18","Australia","33622","25032","imgNWTK/square.png","imgNWTK/triangle.png","imgNWTK/square.png","imgNWTK/triangle.png","noninfo","optim","3.12","{""undefined"":""92""}","","","","","","","","","","","","imgNWTK/square.png",""
"2615.600000023842","","","survey-number","87","1997908","0.0-15.0-0.3","female","18","Australia","33622","25032","imgNWTK/square.png","imgNWTK/triangle.png","imgNWTK/square.png","imgNWTK/triangle.png","noninfo","optim","3.12","{""undefined"":""111""}","","","","","","","","","","","","imgNWTK/square.png",""
"2883.5","","","survey-number","88","2000798","0.0-15.0-0.4","female","18","Australia","33622","25032","imgNWTK/square.png","imgNWTK/triangle.png","imgNWTK/square.png","imgNWTK/triangle.png","noninfo","optim","3.12","{""undefined"":""0""}","","","","","","","","","","","","imgNWTK/square.png",""
"1897.800000011921","","","survey-number","89","2002702","0.0-15.0-0.5","female","18","Australia","33622","25032","imgNWTK/square.png","imgNWTK/triangle.png","imgNWTK/square.png","imgNWTK/triangle.png","noninfo","optim","3.12","{""undefined"":""0""}","","","","","","","","","","","","imgNWTK/square.png",""
"1760.8999999761581","","","survey-number","90","2004469","0.0-15.0-0.6","female","18","Australia","33622","25032","imgNWTK/square.png","imgNWTK/triangle.png","imgNWTK/square.png","imgNWTK/triangle.png","noninfo","optim","3.12","{""undefined"":""0""}","","","","","","","","","","","","imgNWTK/square.png",""
"2576.5","","","survey-number","91","2007051","0.0-15.0-0.7","female","18","Australia","33622","25032","imgNWTK/square.png","imgNWTK/triangle.png","imgNWTK/square.png","imgNWTK/triangle.png","noninfo","optim","3.12","{""undefined"":""86""}","","","","","","","","","","","","imgNWTK/square.png",""
"1873.9000000357628","","","survey-number","92","2008933","0.0-15.0-0.8","female","18","Australia","33622","25032","imgNWTK/square.png","imgNWTK/triangle.png","imgNWTK/square.png","imgNWTK/triangle.png","noninfo","optim","3.12","{""undefined"":""0""}","","","","","","","","","","","","imgNWTK/square.png",""
"3826.2000000476837","","","survey-number","93","2012764","0.0-15.0-0.9","female","18","Australia","33622","25032","imgNWTK/square.png","imgNWTK/triangle.png","imgNWTK/square.png","imgNWTK/triangle.png","noninfo","optim","3.12","{""undefined"":""92""}","","","","","","","","","","","","imgNWTK/square.png",""
"19969.5","","","survey-number","94","2032745","0.0-16.0","female","18","Australia","33622","25032","imgNWTK/square.png","imgNWTK/triangle.png","imgNWTK/square.png","imgNWTK/triangle.png","noninfo","optim","3.12","{""undefined"":""90""}","","","","","","","","","","","","","imgNWTK/square.png"
"8399.599999964237","","","survey-number","95","2041151","0.0-17.0","female","18","Australia","33622","25032","imgNWTK/square.png","imgNWTK/triangle.png","imgNWTK/square.png","imgNWTK/triangle.png","noninfo","optim","3.12","{""undefined"":""118""}","","","","","","","","","","","","","imgNWTK/triangle.png"
"2883","<p style=""text-align:left;"">Great! We are almost at the end of the study... (Please do not close the browser window yet.)</p><p> Your final points balance is 3121, which equals to a bonus payment of $3.12. Please collect your payment from Mathews Building Room 721 (Mon-Fri 9am-5pm); please email amy.x.li@unsw.edu.au at least 24 hours prior to collection so that this is ready for you.</p><p style=""text-align:left;"">To view the debriefing form, please click <a href=""./imgNWTK/debrief_3205.pdf"" target=""_blank"">here</a> to download a copy.</p><p style=""text-align:left;"">Then, <b>please click the below button</b> to confirm that you have received your debrief and to complete the study. Upon clicking ""Finish!"", your SONA credit will be automatically assigned.</p>","0","html-button-response","96","2044039","0.0-18.0","female","18","Australia","33622","25032","imgNWTK/square.png","imgNWTK/triangle.png","imgNWTK/square.png","imgNWTK/triangle.png","noninfo","optim","3.12","","","","","","","","","","","","","",""
