"rt","stimulus","button_pressed","trial_type","trial_index","time_elapsed","internal_node_id","gender","age","language","PID","sona_id","subStim","optStim","stim1","stim2","infoCond","optimCond","bonus","responses","banditTrial","choice","cue","feedback","estimateData","leftOption","rightOption","choiceName","leftInput","rightInput","key_press","postQ","singleEst"
"10944","<p>Thank you for signing up to participate in SONA Study 476! <br> During this study, please focus on the experiment and refrain from activities such as:</p>- <b>Switching to other tabs on your browser (this will be monitored via the experiment)</br> - Using your mobile phone/cell phone</br> - Communicating with others</br></br></b><p>This way, you are helping to provide data that is useful for psychological research. We thank you for your cooperation!</p>","0","html-button-response","0","10949","0.0-0.0","male","18","Australia","34252","25048","imgNWTK/FindOutNow.jpg","imgNWTK/KeepItSecret.jpg","imgNWTK/KeepItSecret.jpg","imgNWTK/FindOutNow.jpg","info","optim","3.09","","","","","","","","","","","","","",""
"1226","<p>Welcome to the experiment!</p><p>You will now read some instructions about the task. Press the 'Next' button to continue. </p>","0","html-button-response","1","12177","0.0-1.0","male","18","Australia","34252","25048","imgNWTK/FindOutNow.jpg","imgNWTK/KeepItSecret.jpg","imgNWTK/KeepItSecret.jpg","imgNWTK/FindOutNow.jpg","info","optim","3.09","","","","","","","","","","","","","",""
"11796","<p> On each trial throughout the experiment you will choose between the options </br><b> Find Out Now </b> and <b> Keep It Secret </b>, as shown below.</p><div><div style= 'float: left; width: 300px; margin: 10px 10px;'><img src= 'imgNWTK/KeepItSecret.jpg'></img></div><div style= 'float: right; width: 300px; margin: 10px 10px;'><img src= 'imgNWTK/FindOutNow.jpg'></img></div></div><br/><br/><br/><br/><br/><br/><br/><br/><br/><br/><br/><p>Each option results in winning points or receiving 0 points.</br>There is a 50% chance of either winning or receiving 0 points.</p><p>You won't receive the outcome until after a <b> 20 second delay</b>. However, selecting the Find Out Now option will allow you to find out about the outcome early, whereas the Keep It Secret option will not. </p>","0","html-button-response","2","23977","0.0-2.0-0.0","male","18","Australia","34252","25048","imgNWTK/FindOutNow.jpg","imgNWTK/KeepItSecret.jpg","imgNWTK/KeepItSecret.jpg","imgNWTK/FindOutNow.jpg","info","optim","3.09","","","","","","","","","","","","","",""
"7071","<img src= 'cues/Experiment6.png'></img><p>As seen above, when choosing the <b>'Find Out Now'</b> option, you will receive either a happy face or sad face.</br>The happy face means you will win points after the delay, whereas the sad face means you will receive 0 points.</br></p><p> When choosing the <b> 'Keep it Secret' </b> option you will receive a confused face.</br> This face appears regardless of whether you are going to win points or not. </p>In short, choosing 'Find Out Now' allows you to find out the outcome before you experience it (after the delay).</br></br>","0","html-button-response","3","31051","0.0-2.0-1.0","male","18","Australia","34252","25048","imgNWTK/FindOutNow.jpg","imgNWTK/KeepItSecret.jpg","imgNWTK/KeepItSecret.jpg","imgNWTK/FindOutNow.jpg","info","optim","3.09","","","","","","","","","","","","","",""
"8235","<img src= 'cues/winTrials_info.png' width = '1200'></img><p>To reiterate, 50% of the outcomes of each option will be WIN TRIALS, and the other 50% will be NO-WIN TRIALS.","0","html-button-response","4","39289","0.0-2.0-2.0","male","18","Australia","34252","25048","imgNWTK/FindOutNow.jpg","imgNWTK/KeepItSecret.jpg","imgNWTK/KeepItSecret.jpg","imgNWTK/FindOutNow.jpg","info","optim","3.09","","","","","","","","","","","","","",""
"20620","<p> There will be <b>four blocks</b> in the experiment.</br>You will be given a short 15 second break between each block.</p><p><b>The points and the options will remain the same between the blocks.</b></p>The blocks are there just to give you a small break.</br></br><p>The points you earn in the task are also equal to <b> actual money</b>.</br> <b>1000 points is equal to $1.</b></p><p>This is the rate you will be paid at the experiment's end.","0","html-button-response","5","59911","0.0-2.0-3.0","male","18","Australia","34252","25048","imgNWTK/FindOutNow.jpg","imgNWTK/KeepItSecret.jpg","imgNWTK/KeepItSecret.jpg","imgNWTK/FindOutNow.jpg","info","optim","3.09","","","","","","","","","","","","","",""
"18659","","","survey-multi-choice","6","78577","0.0-2.0-4.0","male","18","Australia","34252","25048","imgNWTK/FindOutNow.jpg","imgNWTK/KeepItSecret.jpg","imgNWTK/KeepItSecret.jpg","imgNWTK/FindOutNow.jpg","info","optim","3.09","{""Q0"":""20 Seconds"",""Q1"":""True"",""Q2"":""Equally"",""Q3"":""True""}","","","","","","","","","","","","",""
"36599","<p> Well done, all your answers were correct! <br> The experiment is about to start now. <br/> Click start to continue, or email your researcher <b>(amy.x.li@unsw.edu.au)</b> if you have any questions before starting.","0","html-button-response","7","115183","0.0-3.0","male","18","Australia","34252","25048","imgNWTK/FindOutNow.jpg","imgNWTK/KeepItSecret.jpg","imgNWTK/KeepItSecret.jpg","imgNWTK/FindOutNow.jpg","info","optim","3.09","","","","","","","","","","","","","",""
"2909","","","bandit-task-exp6","8","121215","0.0-4.0-0.0","male","18","Australia","34252","25048","imgNWTK/FindOutNow.jpg","imgNWTK/KeepItSecret.jpg","imgNWTK/KeepItSecret.jpg","imgNWTK/FindOutNow.jpg","info","optim","3.09","","1","1","2","0","null","imgNWTK/KeepItSecret.jpg","imgNWTK/FindOutNow.jpg","imgNWTK/KeepItSecret.jpg","NaN","NaN","","",""
"4277","","","bandit-task-exp6","9","129054","0.0-4.0-0.1","male","18","Australia","34252","25048","imgNWTK/FindOutNow.jpg","imgNWTK/KeepItSecret.jpg","imgNWTK/KeepItSecret.jpg","imgNWTK/FindOutNow.jpg","info","optim","3.09","","2","1","2","0","null","imgNWTK/KeepItSecret.jpg","imgNWTK/FindOutNow.jpg","imgNWTK/KeepItSecret.jpg","NaN","NaN","","",""
"2642","","","bandit-task-exp6","10","134378","0.0-4.0-0.2","male","18","Australia","34252","25048","imgNWTK/FindOutNow.jpg","imgNWTK/KeepItSecret.jpg","imgNWTK/KeepItSecret.jpg","imgNWTK/FindOutNow.jpg","info","optim","3.09","","3","1","1","77","null","imgNWTK/FindOutNow.jpg","imgNWTK/KeepItSecret.jpg","imgNWTK/KeepItSecret.jpg","NaN","NaN","","",""
"1245","","","bandit-task-exp6","11","138262","0.0-4.0-0.3","male","18","Australia","34252","25048","imgNWTK/FindOutNow.jpg","imgNWTK/KeepItSecret.jpg","imgNWTK/KeepItSecret.jpg","imgNWTK/FindOutNow.jpg","info","optim","3.09","","4","2","1","0","null","imgNWTK/KeepItSecret.jpg","imgNWTK/FindOutNow.jpg","imgNWTK/FindOutNow.jpg","NaN","NaN","","",""
"1498","","","bandit-task-exp6","12","142575","0.0-4.0-0.4","male","18","Australia","34252","25048","imgNWTK/FindOutNow.jpg","imgNWTK/KeepItSecret.jpg","imgNWTK/KeepItSecret.jpg","imgNWTK/FindOutNow.jpg","info","optim","3.09","","5","2","2","129","null","imgNWTK/FindOutNow.jpg","imgNWTK/KeepItSecret.jpg","imgNWTK/FindOutNow.jpg","NaN","NaN","","",""
"764","","","bandit-task-exp6","13","145898","0.0-4.0-0.5","male","18","Australia","34252","25048","imgNWTK/FindOutNow.jpg","imgNWTK/KeepItSecret.jpg","imgNWTK/KeepItSecret.jpg","imgNWTK/FindOutNow.jpg","info","optim","3.09","","6","2","2","126","null","imgNWTK/FindOutNow.jpg","imgNWTK/KeepItSecret.jpg","imgNWTK/FindOutNow.jpg","NaN","NaN","","",""
"1064","","","bandit-task-exp6","14","149501","0.0-4.0-0.6","male","18","Australia","34252","25048","imgNWTK/FindOutNow.jpg","imgNWTK/KeepItSecret.jpg","imgNWTK/KeepItSecret.jpg","imgNWTK/FindOutNow.jpg","info","optim","3.09","","7","2","1","0","null","imgNWTK/KeepItSecret.jpg","imgNWTK/FindOutNow.jpg","imgNWTK/FindOutNow.jpg","NaN","NaN","","",""
"1040","","","bandit-task-exp6","15","153179","0.0-4.0-0.7","male","18","Australia","34252","25048","imgNWTK/FindOutNow.jpg","imgNWTK/KeepItSecret.jpg","imgNWTK/KeepItSecret.jpg","imgNWTK/FindOutNow.jpg","info","optim","3.09","","8","2","2","123","null","imgNWTK/KeepItSecret.jpg","imgNWTK/FindOutNow.jpg","imgNWTK/FindOutNow.jpg","NaN","NaN","","",""
"779","","","bandit-task-exp6","16","156512","0.0-4.0-0.8","male","18","Australia","34252","25048","imgNWTK/FindOutNow.jpg","imgNWTK/KeepItSecret.jpg","imgNWTK/KeepItSecret.jpg","imgNWTK/FindOutNow.jpg","info","optim","3.09","","9","1","1","86","null","imgNWTK/KeepItSecret.jpg","imgNWTK/FindOutNow.jpg","imgNWTK/KeepItSecret.jpg","NaN","NaN","","",""
"944","","","bandit-task-exp6","17","159871","0.0-4.0-0.9","male","18","Australia","34252","25048","imgNWTK/FindOutNow.jpg","imgNWTK/KeepItSecret.jpg","imgNWTK/KeepItSecret.jpg","imgNWTK/FindOutNow.jpg","info","optim","3.09","","10","2","1","0","null","imgNWTK/KeepItSecret.jpg","imgNWTK/FindOutNow.jpg","imgNWTK/FindOutNow.jpg","NaN","NaN","","",""
"2059","","","bandit-task-exp6","18","164345","0.0-4.0-0.10","male","18","Australia","34252","25048","imgNWTK/FindOutNow.jpg","imgNWTK/KeepItSecret.jpg","imgNWTK/KeepItSecret.jpg","imgNWTK/FindOutNow.jpg","info","optim","3.09","","11","2","2","121","null","imgNWTK/FindOutNow.jpg","imgNWTK/KeepItSecret.jpg","imgNWTK/FindOutNow.jpg","NaN","NaN","","",""
"695","","","bandit-task-exp6","19","167527","0.0-4.0-0.11","male","18","Australia","34252","25048","imgNWTK/FindOutNow.jpg","imgNWTK/KeepItSecret.jpg","imgNWTK/KeepItSecret.jpg","imgNWTK/FindOutNow.jpg","info","optim","3.09","","12","2","1","0","null","imgNWTK/KeepItSecret.jpg","imgNWTK/FindOutNow.jpg","imgNWTK/FindOutNow.jpg","NaN","NaN","","",""
"1089","","","bandit-task-exp6","20","171195","0.0-4.0-0.12","male","18","Australia","34252","25048","imgNWTK/FindOutNow.jpg","imgNWTK/KeepItSecret.jpg","imgNWTK/KeepItSecret.jpg","imgNWTK/FindOutNow.jpg","info","optim","3.09","","13","1","1","73","null","imgNWTK/FindOutNow.jpg","imgNWTK/KeepItSecret.jpg","imgNWTK/KeepItSecret.jpg","NaN","NaN","","",""
"767","","","bandit-task-exp6","21","174532","0.0-4.0-0.13","male","18","Australia","34252","25048","imgNWTK/FindOutNow.jpg","imgNWTK/KeepItSecret.jpg","imgNWTK/KeepItSecret.jpg","imgNWTK/FindOutNow.jpg","info","optim","3.09","","14","2","1","0","null","imgNWTK/FindOutNow.jpg","imgNWTK/KeepItSecret.jpg","imgNWTK/FindOutNow.jpg","NaN","NaN","","",""
"1440","","","bandit-task-exp6","22","178402","0.0-4.0-0.14","male","18","Australia","34252","25048","imgNWTK/FindOutNow.jpg","imgNWTK/KeepItSecret.jpg","imgNWTK/KeepItSecret.jpg","imgNWTK/FindOutNow.jpg","info","optim","3.09","","15","1","2","0","null","imgNWTK/KeepItSecret.jpg","imgNWTK/FindOutNow.jpg","imgNWTK/KeepItSecret.jpg","NaN","NaN","","",""
"null","<p><b> Congratulations, you have finished this block. </b> </p><p>Please take a short break before moving onto the next block.</p><p>The next block will start after a 15 second break.</p><b>Remember, the point rewards are the same between blocks","","html-keyboard-response","23","193408","0.0-5.0","male","18","Australia","34252","25048","imgNWTK/FindOutNow.jpg","imgNWTK/KeepItSecret.jpg","imgNWTK/KeepItSecret.jpg","imgNWTK/FindOutNow.jpg","info","optim","3.09","","","","","","","","","","","","null","",""
"2227","","","bandit-task-exp6","24","198425","0.0-6.0-0.0","male","18","Australia","34252","25048","imgNWTK/FindOutNow.jpg","imgNWTK/KeepItSecret.jpg","imgNWTK/KeepItSecret.jpg","imgNWTK/FindOutNow.jpg","info","optim","3.09","","16","2","2","121","null","imgNWTK/KeepItSecret.jpg","imgNWTK/FindOutNow.jpg","imgNWTK/FindOutNow.jpg","NaN","NaN","","",""
"1201","","","bandit-task-exp6","25","202209","0.0-6.0-0.1","male","18","Australia","34252","25048","imgNWTK/FindOutNow.jpg","imgNWTK/KeepItSecret.jpg","imgNWTK/KeepItSecret.jpg","imgNWTK/FindOutNow.jpg","info","optim","3.09","","17","2","2","124","null","imgNWTK/FindOutNow.jpg","imgNWTK/KeepItSecret.jpg","imgNWTK/FindOutNow.jpg","NaN","NaN","","",""
"1289","","","bandit-task-exp6","26","206246","0.0-6.0-0.2","male","18","Australia","34252","25048","imgNWTK/FindOutNow.jpg","imgNWTK/KeepItSecret.jpg","imgNWTK/KeepItSecret.jpg","imgNWTK/FindOutNow.jpg","info","optim","3.09","","18","2","2","130","null","imgNWTK/KeepItSecret.jpg","imgNWTK/FindOutNow.jpg","imgNWTK/FindOutNow.jpg","NaN","NaN","","",""
"1168","","","bandit-task-exp6","27","209986","0.0-6.0-0.3","male","18","Australia","34252","25048","imgNWTK/FindOutNow.jpg","imgNWTK/KeepItSecret.jpg","imgNWTK/KeepItSecret.jpg","imgNWTK/FindOutNow.jpg","info","optim","3.09","","19","2","2","127","null","imgNWTK/KeepItSecret.jpg","imgNWTK/FindOutNow.jpg","imgNWTK/FindOutNow.jpg","NaN","NaN","","",""
"772","","","bandit-task-exp6","28","213237","0.0-6.0-0.4","male","18","Australia","34252","25048","imgNWTK/FindOutNow.jpg","imgNWTK/KeepItSecret.jpg","imgNWTK/KeepItSecret.jpg","imgNWTK/FindOutNow.jpg","info","optim","3.09","","20","1","1","73","null","imgNWTK/KeepItSecret.jpg","imgNWTK/FindOutNow.jpg","imgNWTK/KeepItSecret.jpg","NaN","NaN","","",""
"1511","","","bandit-task-exp6","29","217655","0.0-6.0-0.5","male","18","Australia","34252","25048","imgNWTK/FindOutNow.jpg","imgNWTK/KeepItSecret.jpg","imgNWTK/KeepItSecret.jpg","imgNWTK/FindOutNow.jpg","info","optim","3.09","","21","2","1","0","null","imgNWTK/KeepItSecret.jpg","imgNWTK/FindOutNow.jpg","imgNWTK/FindOutNow.jpg","NaN","NaN","","",""
"1119","","","bandit-task-exp6","30","221117","0.0-6.0-0.6","male","18","Australia","34252","25048","imgNWTK/FindOutNow.jpg","imgNWTK/KeepItSecret.jpg","imgNWTK/KeepItSecret.jpg","imgNWTK/FindOutNow.jpg","info","optim","3.09","","22","2","1","0","null","imgNWTK/FindOutNow.jpg","imgNWTK/KeepItSecret.jpg","imgNWTK/FindOutNow.jpg","NaN","NaN","","",""
"1062","","","bandit-task-exp6","31","224859","0.0-6.0-0.7","male","18","Australia","34252","25048","imgNWTK/FindOutNow.jpg","imgNWTK/KeepItSecret.jpg","imgNWTK/KeepItSecret.jpg","imgNWTK/FindOutNow.jpg","info","optim","3.09","","23","1","1","84","null","imgNWTK/KeepItSecret.jpg","imgNWTK/FindOutNow.jpg","imgNWTK/KeepItSecret.jpg","NaN","NaN","","",""
"755","","","bandit-task-exp6","32","228186","0.0-6.0-0.8","male","18","Australia","34252","25048","imgNWTK/FindOutNow.jpg","imgNWTK/KeepItSecret.jpg","imgNWTK/KeepItSecret.jpg","imgNWTK/FindOutNow.jpg","info","optim","3.09","","24","1","2","0","null","imgNWTK/KeepItSecret.jpg","imgNWTK/FindOutNow.jpg","imgNWTK/KeepItSecret.jpg","NaN","NaN","","",""
"1005","","","bandit-task-exp6","33","231605","0.0-6.0-0.9","male","18","Australia","34252","25048","imgNWTK/FindOutNow.jpg","imgNWTK/KeepItSecret.jpg","imgNWTK/KeepItSecret.jpg","imgNWTK/FindOutNow.jpg","info","optim","3.09","","25","1","2","0","null","imgNWTK/KeepItSecret.jpg","imgNWTK/FindOutNow.jpg","imgNWTK/KeepItSecret.jpg","NaN","NaN","","",""
"778","","","bandit-task-exp6","34","234944","0.0-6.0-0.10","male","18","Australia","34252","25048","imgNWTK/FindOutNow.jpg","imgNWTK/KeepItSecret.jpg","imgNWTK/KeepItSecret.jpg","imgNWTK/FindOutNow.jpg","info","optim","3.09","","26","2","2","127","null","imgNWTK/KeepItSecret.jpg","imgNWTK/FindOutNow.jpg","imgNWTK/FindOutNow.jpg","NaN","NaN","","",""
"984","","","bandit-task-exp6","35","238282","0.0-6.0-0.11","male","18","Australia","34252","25048","imgNWTK/FindOutNow.jpg","imgNWTK/KeepItSecret.jpg","imgNWTK/KeepItSecret.jpg","imgNWTK/FindOutNow.jpg","info","optim","3.09","","27","2","1","0","null","imgNWTK/FindOutNow.jpg","imgNWTK/KeepItSecret.jpg","imgNWTK/FindOutNow.jpg","NaN","NaN","","",""
"1184","","","bandit-task-exp6","36","241969","0.0-6.0-0.12","male","18","Australia","34252","25048","imgNWTK/FindOutNow.jpg","imgNWTK/KeepItSecret.jpg","imgNWTK/KeepItSecret.jpg","imgNWTK/FindOutNow.jpg","info","optim","3.09","","28","2","1","0","null","imgNWTK/KeepItSecret.jpg","imgNWTK/FindOutNow.jpg","imgNWTK/FindOutNow.jpg","NaN","NaN","","",""
"904","","","bandit-task-exp6","37","245530","0.0-6.0-0.13","male","18","Australia","34252","25048","imgNWTK/FindOutNow.jpg","imgNWTK/KeepItSecret.jpg","imgNWTK/KeepItSecret.jpg","imgNWTK/FindOutNow.jpg","info","optim","3.09","","29","2","1","0","null","imgNWTK/FindOutNow.jpg","imgNWTK/KeepItSecret.jpg","imgNWTK/FindOutNow.jpg","NaN","NaN","","",""
"989","","","bandit-task-exp6","38","249107","0.0-6.0-0.14","male","18","Australia","34252","25048","imgNWTK/FindOutNow.jpg","imgNWTK/KeepItSecret.jpg","imgNWTK/KeepItSecret.jpg","imgNWTK/FindOutNow.jpg","info","optim","3.09","","30","1","2","0","null","imgNWTK/KeepItSecret.jpg","imgNWTK/FindOutNow.jpg","imgNWTK/KeepItSecret.jpg","NaN","NaN","","",""
"null","<p><b> Congratulations, you have finished this block. </b> </p><p>Please take a short break before moving onto the next block.</p><p>The next block will start after a 15 second break.</p><b>Remember, the point rewards are the same between blocks","","html-keyboard-response","39","264114","0.0-7.0","male","18","Australia","34252","25048","imgNWTK/FindOutNow.jpg","imgNWTK/KeepItSecret.jpg","imgNWTK/KeepItSecret.jpg","imgNWTK/FindOutNow.jpg","info","optim","3.09","","","","","","","","","","","","null","",""
"1599","","","bandit-task-exp6","40","269756","0.0-8.0-0.0","male","18","Australia","34252","25048","imgNWTK/FindOutNow.jpg","imgNWTK/KeepItSecret.jpg","imgNWTK/KeepItSecret.jpg","imgNWTK/FindOutNow.jpg","info","optim","3.09","","31","1","2","0","null","imgNWTK/KeepItSecret.jpg","imgNWTK/FindOutNow.jpg","imgNWTK/KeepItSecret.jpg","NaN","NaN","","",""
"678","","","bandit-task-exp6","41","273567","0.0-8.0-0.1","male","18","Australia","34252","25048","imgNWTK/FindOutNow.jpg","imgNWTK/KeepItSecret.jpg","imgNWTK/KeepItSecret.jpg","imgNWTK/FindOutNow.jpg","info","optim","3.09","","32","1","2","0","null","imgNWTK/KeepItSecret.jpg","imgNWTK/FindOutNow.jpg","imgNWTK/KeepItSecret.jpg","NaN","NaN","","",""
"1357","","","bandit-task-exp6","42","277686","0.0-8.0-0.2","male","18","Australia","34252","25048","imgNWTK/FindOutNow.jpg","imgNWTK/KeepItSecret.jpg","imgNWTK/KeepItSecret.jpg","imgNWTK/FindOutNow.jpg","info","optim","3.09","","33","2","1","0","null","imgNWTK/KeepItSecret.jpg","imgNWTK/FindOutNow.jpg","imgNWTK/FindOutNow.jpg","NaN","NaN","","",""
"1176","","","bandit-task-exp6","43","281757","0.0-8.0-0.3","male","18","Australia","34252","25048","imgNWTK/FindOutNow.jpg","imgNWTK/KeepItSecret.jpg","imgNWTK/KeepItSecret.jpg","imgNWTK/FindOutNow.jpg","info","optim","3.09","","34","2","2","113","null","imgNWTK/FindOutNow.jpg","imgNWTK/KeepItSecret.jpg","imgNWTK/FindOutNow.jpg","NaN","NaN","","",""
"1234","","","bandit-task-exp6","44","285626","0.0-8.0-0.4","male","18","Australia","34252","25048","imgNWTK/FindOutNow.jpg","imgNWTK/KeepItSecret.jpg","imgNWTK/KeepItSecret.jpg","imgNWTK/FindOutNow.jpg","info","optim","3.09","","35","2","2","115","null","imgNWTK/KeepItSecret.jpg","imgNWTK/FindOutNow.jpg","imgNWTK/FindOutNow.jpg","NaN","NaN","","",""
"801","","","bandit-task-exp6","45","290176","0.0-8.0-0.5","male","18","Australia","34252","25048","imgNWTK/FindOutNow.jpg","imgNWTK/KeepItSecret.jpg","imgNWTK/KeepItSecret.jpg","imgNWTK/FindOutNow.jpg","info","optim","3.09","","36","2","1","0","null","imgNWTK/FindOutNow.jpg","imgNWTK/KeepItSecret.jpg","imgNWTK/FindOutNow.jpg","NaN","NaN","","",""
"1026","","","bandit-task-exp6","46","294093","0.0-8.0-0.6","male","18","Australia","34252","25048","imgNWTK/FindOutNow.jpg","imgNWTK/KeepItSecret.jpg","imgNWTK/KeepItSecret.jpg","imgNWTK/FindOutNow.jpg","info","optim","3.09","","37","2","2","128","null","imgNWTK/KeepItSecret.jpg","imgNWTK/FindOutNow.jpg","imgNWTK/FindOutNow.jpg","NaN","NaN","","",""
"883","","","bandit-task-exp6","47","298133","0.0-8.0-0.7","male","18","Australia","34252","25048","imgNWTK/FindOutNow.jpg","imgNWTK/KeepItSecret.jpg","imgNWTK/KeepItSecret.jpg","imgNWTK/FindOutNow.jpg","info","optim","3.09","","38","2","2","122","null","imgNWTK/FindOutNow.jpg","imgNWTK/KeepItSecret.jpg","imgNWTK/FindOutNow.jpg","NaN","NaN","","",""
"633","","","bandit-task-exp6","48","301629","0.0-8.0-0.8","male","18","Australia","34252","25048","imgNWTK/FindOutNow.jpg","imgNWTK/KeepItSecret.jpg","imgNWTK/KeepItSecret.jpg","imgNWTK/FindOutNow.jpg","info","optim","3.09","","39","2","2","124","null","imgNWTK/KeepItSecret.jpg","imgNWTK/FindOutNow.jpg","imgNWTK/FindOutNow.jpg","NaN","NaN","","",""
"1609","","","bandit-task-exp6","49","305880","0.0-8.0-0.9","male","18","Australia","34252","25048","imgNWTK/FindOutNow.jpg","imgNWTK/KeepItSecret.jpg","imgNWTK/KeepItSecret.jpg","imgNWTK/FindOutNow.jpg","info","optim","3.09","","40","1","1","90","null","imgNWTK/KeepItSecret.jpg","imgNWTK/FindOutNow.jpg","imgNWTK/KeepItSecret.jpg","NaN","NaN","","",""
"689","","","bandit-task-exp6","50","309214","0.0-8.0-0.10","male","18","Australia","34252","25048","imgNWTK/FindOutNow.jpg","imgNWTK/KeepItSecret.jpg","imgNWTK/KeepItSecret.jpg","imgNWTK/FindOutNow.jpg","info","optim","3.09","","41","1","2","0","null","imgNWTK/KeepItSecret.jpg","imgNWTK/FindOutNow.jpg","imgNWTK/KeepItSecret.jpg","NaN","NaN","","",""
"712","","","bandit-task-exp6","51","313041","0.0-8.0-0.11","male","18","Australia","34252","25048","imgNWTK/FindOutNow.jpg","imgNWTK/KeepItSecret.jpg","imgNWTK/KeepItSecret.jpg","imgNWTK/FindOutNow.jpg","info","optim","3.09","","42","2","1","0","null","imgNWTK/KeepItSecret.jpg","imgNWTK/FindOutNow.jpg","imgNWTK/FindOutNow.jpg","NaN","NaN","","",""
"703","","","bandit-task-exp6","52","316352","0.0-8.0-0.12","male","18","Australia","34252","25048","imgNWTK/FindOutNow.jpg","imgNWTK/KeepItSecret.jpg","imgNWTK/KeepItSecret.jpg","imgNWTK/FindOutNow.jpg","info","optim","3.09","","43","2","2","121","null","imgNWTK/FindOutNow.jpg","imgNWTK/KeepItSecret.jpg","imgNWTK/FindOutNow.jpg","NaN","NaN","","",""
"794","","","bandit-task-exp6","53","319903","0.0-8.0-0.13","male","18","Australia","34252","25048","imgNWTK/FindOutNow.jpg","imgNWTK/KeepItSecret.jpg","imgNWTK/KeepItSecret.jpg","imgNWTK/FindOutNow.jpg","info","optim","3.09","","44","1","1","80","null","imgNWTK/KeepItSecret.jpg","imgNWTK/FindOutNow.jpg","imgNWTK/KeepItSecret.jpg","NaN","NaN","","",""
"793","","","bandit-task-exp6","54","323322","0.0-8.0-0.14","male","18","Australia","34252","25048","imgNWTK/FindOutNow.jpg","imgNWTK/KeepItSecret.jpg","imgNWTK/KeepItSecret.jpg","imgNWTK/FindOutNow.jpg","info","optim","3.09","","45","2","1","0","null","imgNWTK/FindOutNow.jpg","imgNWTK/KeepItSecret.jpg","imgNWTK/FindOutNow.jpg","NaN","NaN","","",""
"null","<p><b> Congratulations, you have finished this block. </b> </p><p>Please take a short break before moving onto the next block.</p><p>The next block will start after a 15 second break.</p><b>Remember, the point rewards are the same between blocks","","html-keyboard-response","55","338328","0.0-9.0","male","18","Australia","34252","25048","imgNWTK/FindOutNow.jpg","imgNWTK/KeepItSecret.jpg","imgNWTK/KeepItSecret.jpg","imgNWTK/FindOutNow.jpg","info","optim","3.09","","","","","","","","","","","","null","",""
"14771","","","bandit-task-exp6","56","356175","0.0-10.0-0.0","male","18","Australia","34252","25048","imgNWTK/FindOutNow.jpg","imgNWTK/KeepItSecret.jpg","imgNWTK/KeepItSecret.jpg","imgNWTK/FindOutNow.jpg","info","optim","3.09","","46","2","2","129","null","imgNWTK/FindOutNow.jpg","imgNWTK/KeepItSecret.jpg","imgNWTK/FindOutNow.jpg","80","168","","",""
"9009","","","bandit-task-exp6","57","367994","0.0-10.0-0.1","male","18","Australia","34252","25048","imgNWTK/FindOutNow.jpg","imgNWTK/KeepItSecret.jpg","imgNWTK/KeepItSecret.jpg","imgNWTK/FindOutNow.jpg","info","optim","3.09","","47","2","1","0","null","imgNWTK/FindOutNow.jpg","imgNWTK/KeepItSecret.jpg","imgNWTK/FindOutNow.jpg","128","68","","",""
"7282","","","bandit-task-exp6","58","378284","0.0-10.0-0.2","male","18","Australia","34252","25048","imgNWTK/FindOutNow.jpg","imgNWTK/KeepItSecret.jpg","imgNWTK/KeepItSecret.jpg","imgNWTK/FindOutNow.jpg","info","optim","3.09","","48","2","1","0","null","imgNWTK/KeepItSecret.jpg","imgNWTK/FindOutNow.jpg","imgNWTK/FindOutNow.jpg","80","130","","",""
"5244","","","bandit-task-exp6","59","386223","0.0-10.0-0.3","male","18","Australia","34252","25048","imgNWTK/FindOutNow.jpg","imgNWTK/KeepItSecret.jpg","imgNWTK/KeepItSecret.jpg","imgNWTK/FindOutNow.jpg","info","optim","3.09","","49","2","1","0","null","imgNWTK/FindOutNow.jpg","imgNWTK/KeepItSecret.jpg","imgNWTK/FindOutNow.jpg","130","90","","",""
"5550","","","bandit-task-exp6","60","394688","0.0-10.0-0.4","male","18","Australia","34252","25048","imgNWTK/FindOutNow.jpg","imgNWTK/KeepItSecret.jpg","imgNWTK/KeepItSecret.jpg","imgNWTK/FindOutNow.jpg","info","optim","3.09","","50","1","2","0","null","imgNWTK/FindOutNow.jpg","imgNWTK/KeepItSecret.jpg","imgNWTK/KeepItSecret.jpg","80","120","","",""
"8763","","","bandit-task-exp6","61","406337","0.0-10.0-0.5","male","18","Australia","34252","25048","imgNWTK/FindOutNow.jpg","imgNWTK/KeepItSecret.jpg","imgNWTK/KeepItSecret.jpg","imgNWTK/FindOutNow.jpg","info","optim","3.09","","51","1","2","0","null","imgNWTK/FindOutNow.jpg","imgNWTK/KeepItSecret.jpg","imgNWTK/KeepItSecret.jpg","120","120","","",""
"5247","","","bandit-task-exp6","62","414584","0.0-10.0-0.6","male","18","Australia","34252","25048","imgNWTK/FindOutNow.jpg","imgNWTK/KeepItSecret.jpg","imgNWTK/KeepItSecret.jpg","imgNWTK/FindOutNow.jpg","info","optim","3.09","","52","2","2","130","null","imgNWTK/FindOutNow.jpg","imgNWTK/KeepItSecret.jpg","imgNWTK/FindOutNow.jpg","80","80","","",""
"5313","","","bandit-task-exp6","63","422851","0.0-10.0-0.7","male","18","Australia","34252","25048","imgNWTK/FindOutNow.jpg","imgNWTK/KeepItSecret.jpg","imgNWTK/KeepItSecret.jpg","imgNWTK/FindOutNow.jpg","info","optim","3.09","","53","1","1","70","null","imgNWTK/KeepItSecret.jpg","imgNWTK/FindOutNow.jpg","imgNWTK/KeepItSecret.jpg","80","130","","",""
"5357","","","bandit-task-exp6","64","431494","0.0-10.0-0.8","male","18","Australia","34252","25048","imgNWTK/FindOutNow.jpg","imgNWTK/KeepItSecret.jpg","imgNWTK/KeepItSecret.jpg","imgNWTK/FindOutNow.jpg","info","optim","3.09","","54","2","1","0","null","imgNWTK/FindOutNow.jpg","imgNWTK/KeepItSecret.jpg","imgNWTK/FindOutNow.jpg","130","70","","",""
"5478","","","bandit-task-exp6","65","440075","0.0-10.0-0.9","male","18","Australia","34252","25048","imgNWTK/FindOutNow.jpg","imgNWTK/KeepItSecret.jpg","imgNWTK/KeepItSecret.jpg","imgNWTK/FindOutNow.jpg","info","optim","3.09","","55","2","2","116","null","imgNWTK/KeepItSecret.jpg","imgNWTK/FindOutNow.jpg","imgNWTK/FindOutNow.jpg","70","130","","",""
"5750","","","bandit-task-exp6","66","448499","0.0-10.0-0.10","male","18","Australia","34252","25048","imgNWTK/FindOutNow.jpg","imgNWTK/KeepItSecret.jpg","imgNWTK/KeepItSecret.jpg","imgNWTK/FindOutNow.jpg","info","optim","3.09","","56","2","1","0","null","imgNWTK/FindOutNow.jpg","imgNWTK/KeepItSecret.jpg","imgNWTK/FindOutNow.jpg","130","80","","",""
"5359","","","bandit-task-exp6","67","456647","0.0-10.0-0.11","male","18","Australia","34252","25048","imgNWTK/FindOutNow.jpg","imgNWTK/KeepItSecret.jpg","imgNWTK/KeepItSecret.jpg","imgNWTK/FindOutNow.jpg","info","optim","3.09","","57","2","2","116","null","imgNWTK/FindOutNow.jpg","imgNWTK/KeepItSecret.jpg","imgNWTK/FindOutNow.jpg","130","80","","",""
"4830","","","bandit-task-exp6","68","464268","0.0-10.0-0.12","male","18","Australia","34252","25048","imgNWTK/FindOutNow.jpg","imgNWTK/KeepItSecret.jpg","imgNWTK/KeepItSecret.jpg","imgNWTK/FindOutNow.jpg","info","optim","3.09","","58","2","2","112","null","imgNWTK/FindOutNow.jpg","imgNWTK/KeepItSecret.jpg","imgNWTK/FindOutNow.jpg","120","70","","",""
"6572","","","bandit-task-exp6","69","473608","0.0-10.0-0.13","male","18","Australia","34252","25048","imgNWTK/FindOutNow.jpg","imgNWTK/KeepItSecret.jpg","imgNWTK/KeepItSecret.jpg","imgNWTK/FindOutNow.jpg","info","optim","3.09","","59","2","1","0","null","imgNWTK/KeepItSecret.jpg","imgNWTK/FindOutNow.jpg","imgNWTK/FindOutNow.jpg","68","118","","",""
"6046","","","bandit-task-exp6","70","482997","0.0-10.0-0.14","male","18","Australia","34252","25048","imgNWTK/FindOutNow.jpg","imgNWTK/KeepItSecret.jpg","imgNWTK/KeepItSecret.jpg","imgNWTK/FindOutNow.jpg","info","optim","3.09","","60","1","2","0","null","imgNWTK/FindOutNow.jpg","imgNWTK/KeepItSecret.jpg","imgNWTK/KeepItSecret.jpg","118","68","","",""
"3643","<p> Congratulations, you have finished the main part of the experiment. </p><p>Before you finish, we have a few short questions about the options and outcomes you saw in the task.</p>","0","html-button-response","71","486644","0.0-11.0","male","18","Australia","34252","25048","imgNWTK/FindOutNow.jpg","imgNWTK/KeepItSecret.jpg","imgNWTK/KeepItSecret.jpg","imgNWTK/FindOutNow.jpg","info","optim","3.09","","","","","","","","","","","","","",""
"13801","<p><b>Now, imagine that you clicked on the below button for another 10 trials (this includes <i> BOTH WIN and NO-WIN trials</i>).</p> <img src= 'imgNWTK/KeepItSecret.jpg'></img></br></br> <p><b>Please type the reward (number of points) you would expect to receive on every trial.</br> Click start to begin.</p>","0","html-button-response","72","500447","0.0-12.0","male","18","Australia","34252","25048","imgNWTK/FindOutNow.jpg","imgNWTK/KeepItSecret.jpg","imgNWTK/KeepItSecret.jpg","imgNWTK/FindOutNow.jpg","info","optim","3.09","","","","","","","","","","","","","",""
"9452.699999928474","","","survey-number","73","509905","0.0-13.0-0.0","male","18","Australia","34252","25048","imgNWTK/FindOutNow.jpg","imgNWTK/KeepItSecret.jpg","imgNWTK/KeepItSecret.jpg","imgNWTK/FindOutNow.jpg","info","optim","3.09","{""undefined"":""80""}","","","","","","","","","","","","imgNWTK/KeepItSecret.jpg",""
"2248.7000000476837","","","survey-number","74","512158","0.0-13.0-0.1","male","18","Australia","34252","25048","imgNWTK/FindOutNow.jpg","imgNWTK/KeepItSecret.jpg","imgNWTK/KeepItSecret.jpg","imgNWTK/FindOutNow.jpg","info","optim","3.09","{""undefined"":""68""}","","","","","","","","","","","","imgNWTK/KeepItSecret.jpg",""
"2121.5","","","survey-number","75","514283","0.0-13.0-0.2","male","18","Australia","34252","25048","imgNWTK/FindOutNow.jpg","imgNWTK/KeepItSecret.jpg","imgNWTK/KeepItSecret.jpg","imgNWTK/FindOutNow.jpg","info","optim","3.09","{""undefined"":""90""}","","","","","","","","","","","","imgNWTK/KeepItSecret.jpg",""
"2147.3000000715256","","","survey-number","76","516434","0.0-13.0-0.3","male","18","Australia","34252","25048","imgNWTK/FindOutNow.jpg","imgNWTK/KeepItSecret.jpg","imgNWTK/KeepItSecret.jpg","imgNWTK/FindOutNow.jpg","info","optim","3.09","{""undefined"":""118""}","","","","","","","","","","","","imgNWTK/KeepItSecret.jpg",""
"2378.600000023842","","","survey-number","77","518816","0.0-13.0-0.4","male","18","Australia","34252","25048","imgNWTK/FindOutNow.jpg","imgNWTK/KeepItSecret.jpg","imgNWTK/KeepItSecret.jpg","imgNWTK/FindOutNow.jpg","info","optim","3.09","{""undefined"":""100""}","","","","","","","","","","","","imgNWTK/KeepItSecret.jpg",""
"1651.6000000238419","","","survey-number","78","520471","0.0-13.0-0.5","male","18","Australia","34252","25048","imgNWTK/FindOutNow.jpg","imgNWTK/KeepItSecret.jpg","imgNWTK/KeepItSecret.jpg","imgNWTK/FindOutNow.jpg","info","optim","3.09","{""undefined"":""78""}","","","","","","","","","","","","imgNWTK/KeepItSecret.jpg",""
"2726.2000000476837","","","survey-number","79","523201","0.0-13.0-0.6","male","18","Australia","34252","25048","imgNWTK/FindOutNow.jpg","imgNWTK/KeepItSecret.jpg","imgNWTK/KeepItSecret.jpg","imgNWTK/FindOutNow.jpg","info","optim","3.09","{""undefined"":""69""}","","","","","","","","","","","","imgNWTK/KeepItSecret.jpg",""
"2836.3000000715256","","","survey-number","80","526041","0.0-13.0-0.7","male","18","Australia","34252","25048","imgNWTK/FindOutNow.jpg","imgNWTK/KeepItSecret.jpg","imgNWTK/KeepItSecret.jpg","imgNWTK/FindOutNow.jpg","info","optim","3.09","{""undefined"":""88""}","","","","","","","","","","","","imgNWTK/KeepItSecret.jpg",""
"3732.2999999523163","","","survey-number","81","529777","0.0-13.0-0.8","male","18","Australia","34252","25048","imgNWTK/FindOutNow.jpg","imgNWTK/KeepItSecret.jpg","imgNWTK/KeepItSecret.jpg","imgNWTK/FindOutNow.jpg","info","optim","3.09","{""undefined"":""130""}","","","","","","","","","","","","imgNWTK/KeepItSecret.jpg",""
"1636.6000000238419","","","survey-number","82","531418","0.0-13.0-0.9","male","18","Australia","34252","25048","imgNWTK/FindOutNow.jpg","imgNWTK/KeepItSecret.jpg","imgNWTK/KeepItSecret.jpg","imgNWTK/FindOutNow.jpg","info","optim","3.09","{""undefined"":""118""}","","","","","","","","","","","","imgNWTK/KeepItSecret.jpg",""
"1608","<p><b>Imagine that you clicked on the below button for another 10 trials (this includes <i> both WIN and NO-WIN trials</i>).</p> <img src= 'imgNWTK/FindOutNow.jpg'></img></br></br> <p><b>Please type the reward (number of points) you would expect to receive on every trial.</br> Click start to begin.</p>","0","html-button-response","83","533029","0.0-14.0","male","18","Australia","34252","25048","imgNWTK/FindOutNow.jpg","imgNWTK/KeepItSecret.jpg","imgNWTK/KeepItSecret.jpg","imgNWTK/FindOutNow.jpg","info","optim","3.09","","","","","","","","","","","","","",""
"1980.8000000715256","","","survey-number","84","535014","0.0-15.0-0.0","male","18","Australia","34252","25048","imgNWTK/FindOutNow.jpg","imgNWTK/KeepItSecret.jpg","imgNWTK/KeepItSecret.jpg","imgNWTK/FindOutNow.jpg","info","optim","3.09","{""undefined"":""118""}","","","","","","","","","","","","imgNWTK/FindOutNow.jpg",""
"1742.7999999523163","","","survey-number","85","536761","0.0-15.0-0.1","male","18","Australia","34252","25048","imgNWTK/FindOutNow.jpg","imgNWTK/KeepItSecret.jpg","imgNWTK/KeepItSecret.jpg","imgNWTK/FindOutNow.jpg","info","optim","3.09","{""undefined"":""130""}","","","","","","","","","","","","imgNWTK/FindOutNow.jpg",""
"2990.5","","","survey-number","86","539755","0.0-15.0-0.2","male","18","Australia","34252","25048","imgNWTK/FindOutNow.jpg","imgNWTK/KeepItSecret.jpg","imgNWTK/KeepItSecret.jpg","imgNWTK/FindOutNow.jpg","info","optim","3.09","{""undefined"":""128""}","","","","","","","","","","","","imgNWTK/FindOutNow.jpg",""
"2076.5","","","survey-number","87","541835","0.0-15.0-0.3","male","18","Australia","34252","25048","imgNWTK/FindOutNow.jpg","imgNWTK/KeepItSecret.jpg","imgNWTK/KeepItSecret.jpg","imgNWTK/FindOutNow.jpg","info","optim","3.09","{""undefined"":""119""}","","","","","","","","","","","","imgNWTK/FindOutNow.jpg",""
"2162.7999999523163","","","survey-number","88","544002","0.0-15.0-0.4","male","18","Australia","34252","25048","imgNWTK/FindOutNow.jpg","imgNWTK/KeepItSecret.jpg","imgNWTK/KeepItSecret.jpg","imgNWTK/FindOutNow.jpg","info","optim","3.09","{""undefined"":""89""}","","","","","","","","","","","","imgNWTK/FindOutNow.jpg",""
"2048.399999976158","","","survey-number","89","546055","0.0-15.0-0.5","male","18","Australia","34252","25048","imgNWTK/FindOutNow.jpg","imgNWTK/KeepItSecret.jpg","imgNWTK/KeepItSecret.jpg","imgNWTK/FindOutNow.jpg","info","optim","3.09","{""undefined"":""100""}","","","","","","","","","","","","imgNWTK/FindOutNow.jpg",""
"3179.600000023842","","","survey-number","90","549237","0.0-15.0-0.6","male","18","Australia","34252","25048","imgNWTK/FindOutNow.jpg","imgNWTK/KeepItSecret.jpg","imgNWTK/KeepItSecret.jpg","imgNWTK/FindOutNow.jpg","info","optim","3.09","{""undefined"":""96""}","","","","","","","","","","","","imgNWTK/FindOutNow.jpg",""
"2387.899999976158","","","survey-number","91","551630","0.0-15.0-0.7","male","18","Australia","34252","25048","imgNWTK/FindOutNow.jpg","imgNWTK/KeepItSecret.jpg","imgNWTK/KeepItSecret.jpg","imgNWTK/FindOutNow.jpg","info","optim","3.09","{""undefined"":""108""}","","","","","","","","","","","","imgNWTK/FindOutNow.jpg",""
"2930.1999999284744","","","survey-number","92","554564","0.0-15.0-0.8","male","18","Australia","34252","25048","imgNWTK/FindOutNow.jpg","imgNWTK/KeepItSecret.jpg","imgNWTK/KeepItSecret.jpg","imgNWTK/FindOutNow.jpg","info","optim","3.09","{""undefined"":""128""}","","","","","","","","","","","","imgNWTK/FindOutNow.jpg",""
"3148.100000023842","","","survey-number","93","557717","0.0-15.0-0.9","male","18","Australia","34252","25048","imgNWTK/FindOutNow.jpg","imgNWTK/KeepItSecret.jpg","imgNWTK/KeepItSecret.jpg","imgNWTK/FindOutNow.jpg","info","optim","3.09","{""undefined"":""132""}","","","","","","","","","","","","imgNWTK/FindOutNow.jpg",""
"24426.300000071526","","","survey-number","94","582150","0.0-16.0","male","18","Australia","34252","25048","imgNWTK/FindOutNow.jpg","imgNWTK/KeepItSecret.jpg","imgNWTK/KeepItSecret.jpg","imgNWTK/FindOutNow.jpg","info","optim","3.09","{""undefined"":""105""}","","","","","","","","","","","","","imgNWTK/KeepItSecret.jpg"
"3556.100000023842","","","survey-number","95","585710","0.0-17.0","male","18","Australia","34252","25048","imgNWTK/FindOutNow.jpg","imgNWTK/KeepItSecret.jpg","imgNWTK/KeepItSecret.jpg","imgNWTK/FindOutNow.jpg","info","optim","3.09","{""undefined"":""118""}","","","","","","","","","","","","","imgNWTK/FindOutNow.jpg"
"315761","<p style=""text-align:left;"">Great! We are almost at the end of the study... (Please do not close the browser window yet.)</p><p> Your final points balance is 3087, which equals to a bonus payment of $3.09. Please collect your payment from Mathews Building Room 721 (Wed-Fri 9am-5pm); please email jaimie.lee@unsw.edu.au at least 24 hours prior to collection so that this is ready for you.</p><p style=""text-align:left;"">To view the debriefing form, please click <a href=""./imgNWTK/debrief_3205.pdf"" target=""_blank"">here</a> to download a copy.</p><p style=""text-align:left;"">Then, <b>please click the below button</b> to confirm that you have received your debrief and to complete the study. Upon clicking ""Finish!"", your SONA credit will be automatically assigned.</p>","0","html-button-response","96","901474","0.0-18.0","male","18","Australia","34252","25048","imgNWTK/FindOutNow.jpg","imgNWTK/KeepItSecret.jpg","imgNWTK/KeepItSecret.jpg","imgNWTK/FindOutNow.jpg","info","optim","3.09","","","","","","","","","","","","","",""
