"rt","stimulus","button_pressed","trial_type","trial_index","time_elapsed","internal_node_id","gender","age","language","PID","sona_id","subStim","optStim","stim1","stim2","infoCond","optimCond","bonus","responses","banditTrial","choice","cue","feedback","estimateData","leftOption","rightOption","choiceName","leftInput","rightInput","key_press","postQ","singleEst"
"8527","<p>Thank you for signing up to participate in SONA Study 476! <br> During this study, please focus on the experiment and refrain from activities such as:</p>- <b>Switching to other tabs on your browser (this will be monitored via the experiment)</br> - Using your mobile phone/cell phone</br> - Communicating with others</br></br></b><p>This way, you are helping to provide data that is useful for psychological research. We thank you for your cooperation!</p>","0","html-button-response","0","8532","0.0-0.0","male","19","Australia","48943","24612","neither","neither","imgNWTK/KeepItSecret.jpg","imgNWTK/FindOutNow.jpg","info","eq","2.42","","","","","","","","","","","","","",""
"2246","<p>Welcome to the experiment!</p><p>You will now read some instructions about the task. Press the 'Next' button to continue. </p>","0","html-button-response","1","10782","0.0-1.0","male","19","Australia","48943","24612","neither","neither","imgNWTK/KeepItSecret.jpg","imgNWTK/FindOutNow.jpg","info","eq","2.42","","","","","","","","","","","","","",""
"23805","<p> On each trial throughout the experiment you will choose between the options </br><b> Find Out Now </b> and <b> Keep It Secret </b>, as shown below.</p><div><div style= 'float: left; width: 300px; margin: 10px 10px;'><img src= 'imgNWTK/KeepItSecret.jpg'></img></div><div style= 'float: right; width: 300px; margin: 10px 10px;'><img src= 'imgNWTK/FindOutNow.jpg'></img></div></div><br/><br/><br/><br/><br/><br/><br/><br/><br/><br/><br/><p>Each option results in winning points or receiving 0 points.</br>There is a 50% chance of either winning or receiving 0 points.</p><p>You won't receive the outcome until after a <b> 20 second delay</b>. However, selecting the Find Out Now option will allow you to find out about the outcome early, whereas the Keep It Secret option will not. </p>","0","html-button-response","2","34590","0.0-2.0-0.0","male","19","Australia","48943","24612","neither","neither","imgNWTK/KeepItSecret.jpg","imgNWTK/FindOutNow.jpg","info","eq","2.42","","","","","","","","","","","","","",""
"38536","<img src= 'cues/Experiment6.png'></img><p>As seen above, when choosing the <b>'Find Out Now'</b> option, you will receive either a happy face or sad face.</br>The happy face means you will win points after the delay, whereas the sad face means you will receive 0 points.</br></p><p> When choosing the <b> 'Keep it Secret' </b> option you will receive a confused face.</br> This face appears regardless of whether you are going to win points or not. </p>In short, choosing 'Find Out Now' allows you to find out the outcome before you experience it (after the delay).</br></br>","0","html-button-response","3","73128","0.0-2.0-1.0","male","19","Australia","48943","24612","neither","neither","imgNWTK/KeepItSecret.jpg","imgNWTK/FindOutNow.jpg","info","eq","2.42","","","","","","","","","","","","","",""
"18741","<img src= 'cues/winTrials_info.png' width = '1200'></img><p>To reiterate, 50% of the outcomes of each option will be WIN TRIALS, and the other 50% will be NO-WIN TRIALS.","0","html-button-response","4","91873","0.0-2.0-2.0","male","19","Australia","48943","24612","neither","neither","imgNWTK/KeepItSecret.jpg","imgNWTK/FindOutNow.jpg","info","eq","2.42","","","","","","","","","","","","","",""
"8269","<p> There will be <b>four blocks</b> in the experiment.</br>You will be given a short 15 second break between each block.</p><p><b>The points and the options will remain the same between the blocks.</b></p>The blocks are there just to give you a small break.</br></br><p>The points you earn in the task are also equal to <b> actual money</b>.</br> <b>1000 points is equal to $1.</b></p><p>This is the rate you will be paid at the experiment's end.","0","html-button-response","5","100146","0.0-2.0-3.0","male","19","Australia","48943","24612","neither","neither","imgNWTK/KeepItSecret.jpg","imgNWTK/FindOutNow.jpg","info","eq","2.42","","","","","","","","","","","","","",""
"30134","","","survey-multi-choice","6","130290","0.0-2.0-4.0","male","19","Australia","48943","24612","neither","neither","imgNWTK/KeepItSecret.jpg","imgNWTK/FindOutNow.jpg","info","eq","2.42","{""Q0"":""20 Seconds"",""Q1"":""True"",""Q2"":""Equally"",""Q3"":""True""}","","","","","","","","","","","","",""
"2152","<p> Well done, all your answers were correct! <br> The experiment is about to start now. <br/> Click start to continue, or email your researcher <b>(amy.x.li@unsw.edu.au)</b> if you have any questions before starting.","0","html-button-response","7","132453","0.0-3.0","male","19","Australia","48943","24612","neither","neither","imgNWTK/KeepItSecret.jpg","imgNWTK/FindOutNow.jpg","info","eq","2.42","","","","","","","","","","","","","",""
"4326","","","bandit-task-exp6","8","159689","0.0-4.0-0.0","male","19","Australia","48943","24612","neither","neither","imgNWTK/KeepItSecret.jpg","imgNWTK/FindOutNow.jpg","info","eq","2.42","","1","2","1","0","null","imgNWTK/FindOutNow.jpg","imgNWTK/KeepItSecret.jpg","imgNWTK/FindOutNow.jpg","NaN","NaN","","",""
"1010","","","bandit-task-exp6","9","188451","0.0-4.0-0.1","male","19","Australia","48943","24612","neither","neither","imgNWTK/KeepItSecret.jpg","imgNWTK/FindOutNow.jpg","info","eq","2.42","","2","1","1","99","null","imgNWTK/FindOutNow.jpg","imgNWTK/KeepItSecret.jpg","imgNWTK/KeepItSecret.jpg","NaN","NaN","","",""
"4196","","","bandit-task-exp6","10","216992","0.0-4.0-0.2","male","19","Australia","48943","24612","neither","neither","imgNWTK/KeepItSecret.jpg","imgNWTK/FindOutNow.jpg","info","eq","2.42","","3","2","2","96","null","imgNWTK/FindOutNow.jpg","imgNWTK/KeepItSecret.jpg","imgNWTK/FindOutNow.jpg","NaN","NaN","","",""
"3437","","","bandit-task-exp6","11","248448","0.0-4.0-0.3","male","19","Australia","48943","24612","neither","neither","imgNWTK/KeepItSecret.jpg","imgNWTK/FindOutNow.jpg","info","eq","2.42","","4","1","2","0","null","imgNWTK/KeepItSecret.jpg","imgNWTK/FindOutNow.jpg","imgNWTK/KeepItSecret.jpg","NaN","NaN","","",""
"12765","","","bandit-task-exp6","12","284799","0.0-4.0-0.4","male","19","Australia","48943","24612","neither","neither","imgNWTK/KeepItSecret.jpg","imgNWTK/FindOutNow.jpg","info","eq","2.42","","5","2","1","0","null","imgNWTK/KeepItSecret.jpg","imgNWTK/FindOutNow.jpg","imgNWTK/FindOutNow.jpg","NaN","NaN","","",""
"1616","","","bandit-task-exp6","13","308989","0.0-4.0-0.5","male","19","Australia","48943","24612","neither","neither","imgNWTK/KeepItSecret.jpg","imgNWTK/FindOutNow.jpg","info","eq","2.42","","6","1","2","0","null","imgNWTK/FindOutNow.jpg","imgNWTK/KeepItSecret.jpg","imgNWTK/KeepItSecret.jpg","NaN","NaN","","",""
"7836","","","bandit-task-exp6","14","339512","0.0-4.0-0.6","male","19","Australia","48943","24612","neither","neither","imgNWTK/KeepItSecret.jpg","imgNWTK/FindOutNow.jpg","info","eq","2.42","","7","2","2","90","null","imgNWTK/FindOutNow.jpg","imgNWTK/KeepItSecret.jpg","imgNWTK/FindOutNow.jpg","NaN","NaN","","",""
"1587","","","bandit-task-exp6","15","364545","0.0-4.0-0.7","male","19","Australia","48943","24612","neither","neither","imgNWTK/KeepItSecret.jpg","imgNWTK/FindOutNow.jpg","info","eq","2.42","","8","1","2","0","null","imgNWTK/FindOutNow.jpg","imgNWTK/KeepItSecret.jpg","imgNWTK/KeepItSecret.jpg","NaN","NaN","","",""
"1371","","","bandit-task-exp6","16","389054","0.0-4.0-0.8","male","19","Australia","48943","24612","neither","neither","imgNWTK/KeepItSecret.jpg","imgNWTK/FindOutNow.jpg","info","eq","2.42","","9","2","1","0","null","imgNWTK/FindOutNow.jpg","imgNWTK/KeepItSecret.jpg","imgNWTK/FindOutNow.jpg","NaN","NaN","","",""
"3434","","","bandit-task-exp6","17","417380","0.0-4.0-0.9","male","19","Australia","48943","24612","neither","neither","imgNWTK/KeepItSecret.jpg","imgNWTK/FindOutNow.jpg","info","eq","2.42","","10","2","1","0","null","imgNWTK/KeepItSecret.jpg","imgNWTK/FindOutNow.jpg","imgNWTK/FindOutNow.jpg","NaN","NaN","","",""
"9730","","","bandit-task-exp6","18","449760","0.0-4.0-0.10","male","19","Australia","48943","24612","neither","neither","imgNWTK/KeepItSecret.jpg","imgNWTK/FindOutNow.jpg","info","eq","2.42","","11","1","1","105","null","imgNWTK/FindOutNow.jpg","imgNWTK/KeepItSecret.jpg","imgNWTK/KeepItSecret.jpg","NaN","NaN","","",""
"1413","","","bandit-task-exp6","19","478049","0.0-4.0-0.11","male","19","Australia","48943","24612","neither","neither","imgNWTK/KeepItSecret.jpg","imgNWTK/FindOutNow.jpg","info","eq","2.42","","12","2","1","0","null","imgNWTK/KeepItSecret.jpg","imgNWTK/FindOutNow.jpg","imgNWTK/FindOutNow.jpg","NaN","NaN","","",""
"1296","","","bandit-task-exp6","20","502304","0.0-4.0-0.12","male","19","Australia","48943","24612","neither","neither","imgNWTK/KeepItSecret.jpg","imgNWTK/FindOutNow.jpg","info","eq","2.42","","13","2","2","99","null","imgNWTK/FindOutNow.jpg","imgNWTK/KeepItSecret.jpg","imgNWTK/FindOutNow.jpg","NaN","NaN","","",""
"2366","","","bandit-task-exp6","21","527093","0.0-4.0-0.13","male","19","Australia","48943","24612","neither","neither","imgNWTK/KeepItSecret.jpg","imgNWTK/FindOutNow.jpg","info","eq","2.42","","14","2","1","0","null","imgNWTK/KeepItSecret.jpg","imgNWTK/FindOutNow.jpg","imgNWTK/FindOutNow.jpg","NaN","NaN","","",""
"3687","","","bandit-task-exp6","22","557831","0.0-4.0-0.14","male","19","Australia","48943","24612","neither","neither","imgNWTK/KeepItSecret.jpg","imgNWTK/FindOutNow.jpg","info","eq","2.42","","15","1","2","0","null","imgNWTK/FindOutNow.jpg","imgNWTK/KeepItSecret.jpg","imgNWTK/KeepItSecret.jpg","NaN","NaN","","",""
"null","<p><b> Congratulations, you have finished this block. </b> </p><p>Please take a short break before moving onto the next block.</p><p>The next block will start after a 15 second break.</p><b>Remember, the point rewards are the same between blocks","","html-keyboard-response","23","572841","0.0-5.0","male","19","Australia","48943","24612","neither","neither","imgNWTK/KeepItSecret.jpg","imgNWTK/FindOutNow.jpg","info","eq","2.42","","","","","","","","","","","","null","",""
"3631","","","bandit-task-exp6","24","599839","0.0-6.0-0.0","male","19","Australia","48943","24612","neither","neither","imgNWTK/KeepItSecret.jpg","imgNWTK/FindOutNow.jpg","info","eq","2.42","","16","2","1","0","null","imgNWTK/FindOutNow.jpg","imgNWTK/KeepItSecret.jpg","imgNWTK/FindOutNow.jpg","NaN","NaN","","",""
"893","","","bandit-task-exp6","25","622618","0.0-6.0-0.1","male","19","Australia","48943","24612","neither","neither","imgNWTK/KeepItSecret.jpg","imgNWTK/FindOutNow.jpg","info","eq","2.42","","17","2","1","0","null","imgNWTK/FindOutNow.jpg","imgNWTK/KeepItSecret.jpg","imgNWTK/FindOutNow.jpg","NaN","NaN","","",""
"843","","","bandit-task-exp6","26","650532","0.0-6.0-0.2","male","19","Australia","48943","24612","neither","neither","imgNWTK/KeepItSecret.jpg","imgNWTK/FindOutNow.jpg","info","eq","2.42","","18","1","1","109","null","imgNWTK/KeepItSecret.jpg","imgNWTK/FindOutNow.jpg","imgNWTK/KeepItSecret.jpg","NaN","NaN","","",""
"1451","","","bandit-task-exp6","27","674782","0.0-6.0-0.3","male","19","Australia","48943","24612","neither","neither","imgNWTK/KeepItSecret.jpg","imgNWTK/FindOutNow.jpg","info","eq","2.42","","19","2","1","0","null","imgNWTK/FindOutNow.jpg","imgNWTK/KeepItSecret.jpg","imgNWTK/FindOutNow.jpg","NaN","NaN","","",""
"1092","","","bandit-task-exp6","28","701714","0.0-6.0-0.4","male","19","Australia","48943","24612","neither","neither","imgNWTK/KeepItSecret.jpg","imgNWTK/FindOutNow.jpg","info","eq","2.42","","20","2","2","93","null","imgNWTK/KeepItSecret.jpg","imgNWTK/FindOutNow.jpg","imgNWTK/FindOutNow.jpg","NaN","NaN","","",""
"2848","","","bandit-task-exp6","29","727215","0.0-6.0-0.5","male","19","Australia","48943","24612","neither","neither","imgNWTK/KeepItSecret.jpg","imgNWTK/FindOutNow.jpg","info","eq","2.42","","21","2","2","106","null","imgNWTK/FindOutNow.jpg","imgNWTK/KeepItSecret.jpg","imgNWTK/FindOutNow.jpg","NaN","NaN","","",""
"1791","","","bandit-task-exp6","30","751446","0.0-6.0-0.6","male","19","Australia","48943","24612","neither","neither","imgNWTK/KeepItSecret.jpg","imgNWTK/FindOutNow.jpg","info","eq","2.42","","22","2","2","99","null","imgNWTK/FindOutNow.jpg","imgNWTK/KeepItSecret.jpg","imgNWTK/FindOutNow.jpg","NaN","NaN","","",""
"1218","","","bandit-task-exp6","31","775319","0.0-6.0-0.7","male","19","Australia","48943","24612","neither","neither","imgNWTK/KeepItSecret.jpg","imgNWTK/FindOutNow.jpg","info","eq","2.42","","23","2","2","93","null","imgNWTK/KeepItSecret.jpg","imgNWTK/FindOutNow.jpg","imgNWTK/FindOutNow.jpg","NaN","NaN","","",""
"2136","","","bandit-task-exp6","32","799548","0.0-6.0-0.8","male","19","Australia","48943","24612","neither","neither","imgNWTK/KeepItSecret.jpg","imgNWTK/FindOutNow.jpg","info","eq","2.42","","24","2","2","104","null","imgNWTK/KeepItSecret.jpg","imgNWTK/FindOutNow.jpg","imgNWTK/FindOutNow.jpg","NaN","NaN","","",""
"2001","","","bandit-task-exp6","33","824266","0.0-6.0-0.9","male","19","Australia","48943","24612","neither","neither","imgNWTK/KeepItSecret.jpg","imgNWTK/FindOutNow.jpg","info","eq","2.42","","25","2","1","0","null","imgNWTK/FindOutNow.jpg","imgNWTK/KeepItSecret.jpg","imgNWTK/FindOutNow.jpg","NaN","NaN","","",""
"1623","","","bandit-task-exp6","34","851387","0.0-6.0-0.10","male","19","Australia","48943","24612","neither","neither","imgNWTK/KeepItSecret.jpg","imgNWTK/FindOutNow.jpg","info","eq","2.42","","26","2","1","0","null","imgNWTK/FindOutNow.jpg","imgNWTK/KeepItSecret.jpg","imgNWTK/FindOutNow.jpg","NaN","NaN","","",""
"1110","","","bandit-task-exp6","35","874765","0.0-6.0-0.11","male","19","Australia","48943","24612","neither","neither","imgNWTK/KeepItSecret.jpg","imgNWTK/FindOutNow.jpg","info","eq","2.42","","27","1","1","101","null","imgNWTK/KeepItSecret.jpg","imgNWTK/FindOutNow.jpg","imgNWTK/KeepItSecret.jpg","NaN","NaN","","",""
"1867","","","bandit-task-exp6","36","899008","0.0-6.0-0.12","male","19","Australia","48943","24612","neither","neither","imgNWTK/KeepItSecret.jpg","imgNWTK/FindOutNow.jpg","info","eq","2.42","","28","2","2","109","null","imgNWTK/KeepItSecret.jpg","imgNWTK/FindOutNow.jpg","imgNWTK/FindOutNow.jpg","NaN","NaN","","",""
"2829","","","bandit-task-exp6","37","924417","0.0-6.0-0.13","male","19","Australia","48943","24612","neither","neither","imgNWTK/KeepItSecret.jpg","imgNWTK/FindOutNow.jpg","info","eq","2.42","","29","2","1","0","null","imgNWTK/KeepItSecret.jpg","imgNWTK/FindOutNow.jpg","imgNWTK/FindOutNow.jpg","NaN","NaN","","",""
"1114","","","bandit-task-exp6","38","947504","0.0-6.0-0.14","male","19","Australia","48943","24612","neither","neither","imgNWTK/KeepItSecret.jpg","imgNWTK/FindOutNow.jpg","info","eq","2.42","","30","2","1","0","null","imgNWTK/KeepItSecret.jpg","imgNWTK/FindOutNow.jpg","imgNWTK/FindOutNow.jpg","NaN","NaN","","",""
"null","<p><b> Congratulations, you have finished this block. </b> </p><p>Please take a short break before moving onto the next block.</p><p>The next block will start after a 15 second break.</p><b>Remember, the point rewards are the same between blocks","","html-keyboard-response","39","962514","0.0-7.0","male","19","Australia","48943","24612","neither","neither","imgNWTK/KeepItSecret.jpg","imgNWTK/FindOutNow.jpg","info","eq","2.42","","","","","","","","","","","","null","",""
"4871","","","bandit-task-exp6","40","991266","0.0-8.0-0.0","male","19","Australia","48943","24612","neither","neither","imgNWTK/KeepItSecret.jpg","imgNWTK/FindOutNow.jpg","info","eq","2.42","","31","2","1","0","null","imgNWTK/KeepItSecret.jpg","imgNWTK/FindOutNow.jpg","imgNWTK/FindOutNow.jpg","NaN","NaN","","",""
"5582","","","bandit-task-exp6","41","1018788","0.0-8.0-0.1","male","19","Australia","48943","24612","neither","neither","imgNWTK/KeepItSecret.jpg","imgNWTK/FindOutNow.jpg","info","eq","2.42","","32","2","2","96","null","imgNWTK/KeepItSecret.jpg","imgNWTK/FindOutNow.jpg","imgNWTK/FindOutNow.jpg","NaN","NaN","","",""
"1238","","","bandit-task-exp6","42","1042833","0.0-8.0-0.2","male","19","Australia","48943","24612","neither","neither","imgNWTK/KeepItSecret.jpg","imgNWTK/FindOutNow.jpg","info","eq","2.42","","33","2","2","98","null","imgNWTK/FindOutNow.jpg","imgNWTK/KeepItSecret.jpg","imgNWTK/FindOutNow.jpg","NaN","NaN","","",""
"1310","","","bandit-task-exp6","43","1067147","0.0-8.0-0.3","male","19","Australia","48943","24612","neither","neither","imgNWTK/KeepItSecret.jpg","imgNWTK/FindOutNow.jpg","info","eq","2.42","","34","2","1","0","null","imgNWTK/KeepItSecret.jpg","imgNWTK/FindOutNow.jpg","imgNWTK/FindOutNow.jpg","NaN","NaN","","",""
"5153","","","bandit-task-exp6","44","1095593","0.0-8.0-0.4","male","19","Australia","48943","24612","neither","neither","imgNWTK/KeepItSecret.jpg","imgNWTK/FindOutNow.jpg","info","eq","2.42","","35","2","1","0","null","imgNWTK/FindOutNow.jpg","imgNWTK/KeepItSecret.jpg","imgNWTK/FindOutNow.jpg","NaN","NaN","","",""
"10938","","","bandit-task-exp6","45","1129219","0.0-8.0-0.5","male","19","Australia","48943","24612","neither","neither","imgNWTK/KeepItSecret.jpg","imgNWTK/FindOutNow.jpg","info","eq","2.42","","36","2","1","0","null","imgNWTK/FindOutNow.jpg","imgNWTK/KeepItSecret.jpg","imgNWTK/FindOutNow.jpg","NaN","NaN","","",""
"3377","","","bandit-task-exp6","46","1155213","0.0-8.0-0.6","male","19","Australia","48943","24612","neither","neither","imgNWTK/KeepItSecret.jpg","imgNWTK/FindOutNow.jpg","info","eq","2.42","","37","2","1","0","null","imgNWTK/FindOutNow.jpg","imgNWTK/KeepItSecret.jpg","imgNWTK/FindOutNow.jpg","NaN","NaN","","",""
"1235","","","bandit-task-exp6","47","1182077","0.0-8.0-0.7","male","19","Australia","48943","24612","neither","neither","imgNWTK/KeepItSecret.jpg","imgNWTK/FindOutNow.jpg","info","eq","2.42","","38","2","2","105","null","imgNWTK/FindOutNow.jpg","imgNWTK/KeepItSecret.jpg","imgNWTK/FindOutNow.jpg","NaN","NaN","","",""
"2153","","","bandit-task-exp6","48","1206827","0.0-8.0-0.8","male","19","Australia","48943","24612","neither","neither","imgNWTK/KeepItSecret.jpg","imgNWTK/FindOutNow.jpg","info","eq","2.42","","39","2","1","0","null","imgNWTK/KeepItSecret.jpg","imgNWTK/FindOutNow.jpg","imgNWTK/FindOutNow.jpg","NaN","NaN","","",""
"2534","","","bandit-task-exp6","49","1232341","0.0-8.0-0.9","male","19","Australia","48943","24612","neither","neither","imgNWTK/KeepItSecret.jpg","imgNWTK/FindOutNow.jpg","info","eq","2.42","","40","2","2","105","null","imgNWTK/KeepItSecret.jpg","imgNWTK/FindOutNow.jpg","imgNWTK/FindOutNow.jpg","NaN","NaN","","",""
"1554","","","bandit-task-exp6","50","1256691","0.0-8.0-0.10","male","19","Australia","48943","24612","neither","neither","imgNWTK/KeepItSecret.jpg","imgNWTK/FindOutNow.jpg","info","eq","2.42","","41","2","1","0","null","imgNWTK/FindOutNow.jpg","imgNWTK/KeepItSecret.jpg","imgNWTK/FindOutNow.jpg","NaN","NaN","","",""
"4178","","","bandit-task-exp6","51","1288694","0.0-8.0-0.11","male","19","Australia","48943","24612","neither","neither","imgNWTK/KeepItSecret.jpg","imgNWTK/FindOutNow.jpg","info","eq","2.42","","42","2","2","97","null","imgNWTK/FindOutNow.jpg","imgNWTK/KeepItSecret.jpg","imgNWTK/FindOutNow.jpg","NaN","NaN","","",""
"7845","","","bandit-task-exp6","52","1320624","0.0-8.0-0.12","male","19","Australia","48943","24612","neither","neither","imgNWTK/KeepItSecret.jpg","imgNWTK/FindOutNow.jpg","info","eq","2.42","","43","2","1","0","null","imgNWTK/FindOutNow.jpg","imgNWTK/KeepItSecret.jpg","imgNWTK/FindOutNow.jpg","NaN","NaN","","",""
"1434","","","bandit-task-exp6","53","1345680","0.0-8.0-0.13","male","19","Australia","48943","24612","neither","neither","imgNWTK/KeepItSecret.jpg","imgNWTK/FindOutNow.jpg","info","eq","2.42","","44","2","1","0","null","imgNWTK/KeepItSecret.jpg","imgNWTK/FindOutNow.jpg","imgNWTK/FindOutNow.jpg","NaN","NaN","","",""
"2186","","","bandit-task-exp6","54","1370402","0.0-8.0-0.14","male","19","Australia","48943","24612","neither","neither","imgNWTK/KeepItSecret.jpg","imgNWTK/FindOutNow.jpg","info","eq","2.42","","45","2","1","0","null","imgNWTK/FindOutNow.jpg","imgNWTK/KeepItSecret.jpg","imgNWTK/FindOutNow.jpg","NaN","NaN","","",""
"null","<p><b> Congratulations, you have finished this block. </b> </p><p>Please take a short break before moving onto the next block.</p><p>The next block will start after a 15 second break.</p><b>Remember, the point rewards are the same between blocks","","html-keyboard-response","55","1385777","0.0-9.0","male","19","Australia","48943","24612","neither","neither","imgNWTK/KeepItSecret.jpg","imgNWTK/FindOutNow.jpg","info","eq","2.42","","","","","","","","","","","","null","",""
"21842","","","bandit-task-exp6","56","1430360","0.0-10.0-0.0","male","19","Australia","48943","24612","neither","neither","imgNWTK/KeepItSecret.jpg","imgNWTK/FindOutNow.jpg","info","eq","2.42","","46","2","2","105","null","imgNWTK/KeepItSecret.jpg","imgNWTK/FindOutNow.jpg","imgNWTK/FindOutNow.jpg","95","97","","",""
"13480","","","bandit-task-exp6","57","1466536","0.0-10.0-0.1","male","19","Australia","48943","24612","neither","neither","imgNWTK/KeepItSecret.jpg","imgNWTK/FindOutNow.jpg","info","eq","2.42","","47","2","1","0","null","imgNWTK/FindOutNow.jpg","imgNWTK/KeepItSecret.jpg","imgNWTK/FindOutNow.jpg","100","95","","",""
"11569","","","bandit-task-exp6","58","1500863","0.0-10.0-0.2","male","19","Australia","48943","24612","neither","neither","imgNWTK/KeepItSecret.jpg","imgNWTK/FindOutNow.jpg","info","eq","2.42","","48","2","1","0","null","imgNWTK/FindOutNow.jpg","imgNWTK/KeepItSecret.jpg","imgNWTK/FindOutNow.jpg","100","95","","",""
"11112","","","bandit-task-exp6","59","1534439","0.0-10.0-0.3","male","19","Australia","48943","24612","neither","neither","imgNWTK/KeepItSecret.jpg","imgNWTK/FindOutNow.jpg","info","eq","2.42","","49","1","1","103","null","imgNWTK/KeepItSecret.jpg","imgNWTK/FindOutNow.jpg","imgNWTK/KeepItSecret.jpg","100","90","","",""
"6160","","","bandit-task-exp6","60","1563373","0.0-10.0-0.4","male","19","Australia","48943","24612","neither","neither","imgNWTK/KeepItSecret.jpg","imgNWTK/FindOutNow.jpg","info","eq","2.42","","50","1","2","0","null","imgNWTK/KeepItSecret.jpg","imgNWTK/FindOutNow.jpg","imgNWTK/KeepItSecret.jpg","100","90","","",""
"7079","","","bandit-task-exp6","61","1598989","0.0-10.0-0.5","male","19","Australia","48943","24612","neither","neither","imgNWTK/KeepItSecret.jpg","imgNWTK/FindOutNow.jpg","info","eq","2.42","","51","1","2","0","null","imgNWTK/KeepItSecret.jpg","imgNWTK/FindOutNow.jpg","imgNWTK/KeepItSecret.jpg","100","90","","",""
"7117","","","bandit-task-exp6","62","1628191","0.0-10.0-0.6","male","19","Australia","48943","24612","neither","neither","imgNWTK/KeepItSecret.jpg","imgNWTK/FindOutNow.jpg","info","eq","2.42","","52","2","1","0","null","imgNWTK/KeepItSecret.jpg","imgNWTK/FindOutNow.jpg","imgNWTK/FindOutNow.jpg","90","90","","",""
"6949","","","bandit-task-exp6","63","1658018","0.0-10.0-0.7","male","19","Australia","48943","24612","neither","neither","imgNWTK/KeepItSecret.jpg","imgNWTK/FindOutNow.jpg","info","eq","2.42","","53","1","1","105","null","imgNWTK/FindOutNow.jpg","imgNWTK/KeepItSecret.jpg","imgNWTK/KeepItSecret.jpg","100","100","","",""
"10595","","","bandit-task-exp6","64","1691076","0.0-10.0-0.8","male","19","Australia","48943","24612","neither","neither","imgNWTK/KeepItSecret.jpg","imgNWTK/FindOutNow.jpg","info","eq","2.42","","54","2","1","0","null","imgNWTK/KeepItSecret.jpg","imgNWTK/FindOutNow.jpg","imgNWTK/FindOutNow.jpg","100","100","","",""
"4859","","","bandit-task-exp6","65","1720401","0.0-10.0-0.9","male","19","Australia","48943","24612","neither","neither","imgNWTK/KeepItSecret.jpg","imgNWTK/FindOutNow.jpg","info","eq","2.42","","55","2","2","103","null","imgNWTK/KeepItSecret.jpg","imgNWTK/FindOutNow.jpg","imgNWTK/FindOutNow.jpg","100","100","","",""
"6448","","","bandit-task-exp6","66","1748740","0.0-10.0-0.10","male","19","Australia","48943","24612","neither","neither","imgNWTK/KeepItSecret.jpg","imgNWTK/FindOutNow.jpg","info","eq","2.42","","56","2","1","0","null","imgNWTK/KeepItSecret.jpg","imgNWTK/FindOutNow.jpg","imgNWTK/FindOutNow.jpg","100","100","","",""
"5038","","","bandit-task-exp6","67","1776806","0.0-10.0-0.11","male","19","Australia","48943","24612","neither","neither","imgNWTK/KeepItSecret.jpg","imgNWTK/FindOutNow.jpg","info","eq","2.42","","57","1","1","94","null","imgNWTK/KeepItSecret.jpg","imgNWTK/FindOutNow.jpg","imgNWTK/KeepItSecret.jpg","100","100","","",""
"4741","","","bandit-task-exp6","68","1804942","0.0-10.0-0.12","male","19","Australia","48943","24612","neither","neither","imgNWTK/KeepItSecret.jpg","imgNWTK/FindOutNow.jpg","info","eq","2.42","","58","2","1","0","null","imgNWTK/KeepItSecret.jpg","imgNWTK/FindOutNow.jpg","imgNWTK/FindOutNow.jpg","100","100","","",""
"5839","","","bandit-task-exp6","69","1834927","0.0-10.0-0.13","male","19","Australia","48943","24612","neither","neither","imgNWTK/KeepItSecret.jpg","imgNWTK/FindOutNow.jpg","info","eq","2.42","","59","2","1","0","null","imgNWTK/FindOutNow.jpg","imgNWTK/KeepItSecret.jpg","imgNWTK/FindOutNow.jpg","100","100","","",""
"4826","","","bandit-task-exp6","70","1862530","0.0-10.0-0.14","male","19","Australia","48943","24612","neither","neither","imgNWTK/KeepItSecret.jpg","imgNWTK/FindOutNow.jpg","info","eq","2.42","","60","2","2","102","null","imgNWTK/KeepItSecret.jpg","imgNWTK/FindOutNow.jpg","imgNWTK/FindOutNow.jpg","100","100","","",""
"2720","<p> Congratulations, you have finished the main part of the experiment. </p><p>Before you finish, we have a few short questions about the options and outcomes you saw in the task.</p>","0","html-button-response","71","1865253","0.0-11.0","male","19","Australia","48943","24612","neither","neither","imgNWTK/KeepItSecret.jpg","imgNWTK/FindOutNow.jpg","info","eq","2.42","","","","","","","","","","","","","",""
"10273","<p><b>Now, imagine that you clicked on the below button for another 10 trials (this includes <i> BOTH WIN and NO-WIN trials</i>).</p> <img src= 'imgNWTK/KeepItSecret.jpg'></img></br></br> <p><b>Please type the reward (number of points) you would expect to receive on every trial.</br> Click start to begin.</p>","0","html-button-response","72","1875529","0.0-12.0","male","19","Australia","48943","24612","neither","neither","imgNWTK/KeepItSecret.jpg","imgNWTK/FindOutNow.jpg","info","eq","2.42","","","","","","","","","","","","","",""
"3095.400000002235","","","survey-number","73","1878633","0.0-13.0-0.0","male","19","Australia","48943","24612","neither","neither","imgNWTK/KeepItSecret.jpg","imgNWTK/FindOutNow.jpg","info","eq","2.42","{""undefined"":""100""}","","","","","","","","","","","","imgNWTK/KeepItSecret.jpg",""
"1800.7999999970198","","","survey-number","74","1880438","0.0-13.0-0.1","male","19","Australia","48943","24612","neither","neither","imgNWTK/KeepItSecret.jpg","imgNWTK/FindOutNow.jpg","info","eq","2.42","{""undefined"":""100""}","","","","","","","","","","","","imgNWTK/KeepItSecret.jpg",""
"2607.89999999851","","","survey-number","75","1883050","0.0-13.0-0.2","male","19","Australia","48943","24612","neither","neither","imgNWTK/KeepItSecret.jpg","imgNWTK/FindOutNow.jpg","info","eq","2.42","{""undefined"":""100""}","","","","","","","","","","","","imgNWTK/KeepItSecret.jpg",""
"1804.800000000745","","","survey-number","76","1884860","0.0-13.0-0.3","male","19","Australia","48943","24612","neither","neither","imgNWTK/KeepItSecret.jpg","imgNWTK/FindOutNow.jpg","info","eq","2.42","{""undefined"":""100""}","","","","","","","","","","","","imgNWTK/KeepItSecret.jpg",""
"3522.400000002235","","","survey-number","77","1888388","0.0-13.0-0.4","male","19","Australia","48943","24612","neither","neither","imgNWTK/KeepItSecret.jpg","imgNWTK/FindOutNow.jpg","info","eq","2.42","{""undefined"":""95""}","","","","","","","","","","","","imgNWTK/KeepItSecret.jpg",""
"1789.300000000745","","","survey-number","78","1890183","0.0-13.0-0.5","male","19","Australia","48943","24612","neither","neither","imgNWTK/KeepItSecret.jpg","imgNWTK/FindOutNow.jpg","info","eq","2.42","{""undefined"":""105""}","","","","","","","","","","","","imgNWTK/KeepItSecret.jpg",""
"1531.699999999255","","","survey-number","79","1891719","0.0-13.0-0.6","male","19","Australia","48943","24612","neither","neither","imgNWTK/KeepItSecret.jpg","imgNWTK/FindOutNow.jpg","info","eq","2.42","{""undefined"":""95""}","","","","","","","","","","","","imgNWTK/KeepItSecret.jpg",""
"1144.2999999970198","","","survey-number","80","1892869","0.0-13.0-0.7","male","19","Australia","48943","24612","neither","neither","imgNWTK/KeepItSecret.jpg","imgNWTK/FindOutNow.jpg","info","eq","2.42","{""undefined"":""105""}","","","","","","","","","","","","imgNWTK/KeepItSecret.jpg",""
"1606.5","","","survey-number","81","1894480","0.0-13.0-0.8","male","19","Australia","48943","24612","neither","neither","imgNWTK/KeepItSecret.jpg","imgNWTK/FindOutNow.jpg","info","eq","2.42","{""undefined"":""100""}","","","","","","","","","","","","imgNWTK/KeepItSecret.jpg",""
"2756.300000000745","","","survey-number","82","1897242","0.0-13.0-0.9","male","19","Australia","48943","24612","neither","neither","imgNWTK/KeepItSecret.jpg","imgNWTK/FindOutNow.jpg","info","eq","2.42","{""undefined"":""100""}","","","","","","","","","","","","imgNWTK/KeepItSecret.jpg",""
"1947","<p><b>Imagine that you clicked on the below button for another 10 trials (this includes <i> both WIN and NO-WIN trials</i>).</p> <img src= 'imgNWTK/FindOutNow.jpg'></img></br></br> <p><b>Please type the reward (number of points) you would expect to receive on every trial.</br> Click start to begin.</p>","0","html-button-response","83","1899191","0.0-14.0","male","19","Australia","48943","24612","neither","neither","imgNWTK/KeepItSecret.jpg","imgNWTK/FindOutNow.jpg","info","eq","2.42","","","","","","","","","","","","","",""
"1832.1000000014901","","","survey-number","84","1901031","0.0-15.0-0.0","male","19","Australia","48943","24612","neither","neither","imgNWTK/KeepItSecret.jpg","imgNWTK/FindOutNow.jpg","info","eq","2.42","{""undefined"":""95""}","","","","","","","","","","","","imgNWTK/FindOutNow.jpg",""
"1378.300000000745","","","survey-number","85","1902414","0.0-15.0-0.1","male","19","Australia","48943","24612","neither","neither","imgNWTK/KeepItSecret.jpg","imgNWTK/FindOutNow.jpg","info","eq","2.42","{""undefined"":""100""}","","","","","","","","","","","","imgNWTK/FindOutNow.jpg",""
"1160.3999999985099","","","survey-number","86","1903579","0.0-15.0-0.2","male","19","Australia","48943","24612","neither","neither","imgNWTK/KeepItSecret.jpg","imgNWTK/FindOutNow.jpg","info","eq","2.42","{""undefined"":""105""}","","","","","","","","","","","","imgNWTK/FindOutNow.jpg",""
"1344.5","","","survey-number","87","1904928","0.0-15.0-0.3","male","19","Australia","48943","24612","neither","neither","imgNWTK/KeepItSecret.jpg","imgNWTK/FindOutNow.jpg","info","eq","2.42","{""undefined"":""95""}","","","","","","","","","","","","imgNWTK/FindOutNow.jpg",""
"1261.699999999255","","","survey-number","88","1906195","0.0-15.0-0.4","male","19","Australia","48943","24612","neither","neither","imgNWTK/KeepItSecret.jpg","imgNWTK/FindOutNow.jpg","info","eq","2.42","{""undefined"":""96""}","","","","","","","","","","","","imgNWTK/FindOutNow.jpg",""
"2058.699999999255","","","survey-number","89","1908258","0.0-15.0-0.5","male","19","Australia","48943","24612","neither","neither","imgNWTK/KeepItSecret.jpg","imgNWTK/FindOutNow.jpg","info","eq","2.42","{""undefined"":""105""}","","","","","","","","","","","","imgNWTK/FindOutNow.jpg",""
"916.3000000007451","","","survey-number","90","1909180","0.0-15.0-0.6","male","19","Australia","48943","24612","neither","neither","imgNWTK/KeepItSecret.jpg","imgNWTK/FindOutNow.jpg","info","eq","2.42","{""undefined"":""100""}","","","","","","","","","","","","imgNWTK/FindOutNow.jpg",""
"1103.7000000029802","","","survey-number","91","1910289","0.0-15.0-0.7","male","19","Australia","48943","24612","neither","neither","imgNWTK/KeepItSecret.jpg","imgNWTK/FindOutNow.jpg","info","eq","2.42","{""undefined"":""95""}","","","","","","","","","","","","imgNWTK/FindOutNow.jpg",""
"1173.300000000745","","","survey-number","92","1911468","0.0-15.0-0.8","male","19","Australia","48943","24612","neither","neither","imgNWTK/KeepItSecret.jpg","imgNWTK/FindOutNow.jpg","info","eq","2.42","{""undefined"":""100""}","","","","","","","","","","","","imgNWTK/FindOutNow.jpg",""
"2370","","","survey-number","93","1913842","0.0-15.0-0.9","male","19","Australia","48943","24612","neither","neither","imgNWTK/KeepItSecret.jpg","imgNWTK/FindOutNow.jpg","info","eq","2.42","{""undefined"":""105""}","","","","","","","","","","","","imgNWTK/FindOutNow.jpg",""
"22781.89999999851","","","survey-number","94","1936632","0.0-16.0","male","19","Australia","48943","24612","neither","neither","imgNWTK/KeepItSecret.jpg","imgNWTK/FindOutNow.jpg","info","eq","2.42","{""undefined"":""100""}","","","","","","","","","","","","","imgNWTK/FindOutNow.jpg"
"2074.89999999851","","","survey-number","95","1938713","0.0-17.0","male","19","Australia","48943","24612","neither","neither","imgNWTK/KeepItSecret.jpg","imgNWTK/FindOutNow.jpg","info","eq","2.42","{""undefined"":""100""}","","","","","","","","","","","","","imgNWTK/KeepItSecret.jpg"
"63962","<p style=""text-align:left;"">Great! We are almost at the end of the study... (Please do not close the browser window yet.)</p><p> Your final points balance is 2416, which equals to a bonus payment of $2.42. Please collect your payment from Mathews Building Room 721 (Mon-Fri 9am-5pm); please email amy.x.li@unsw.edu.au at least 24 hours prior to collection so that this is ready for you.</p><p style=""text-align:left;"">To view the debriefing form, please click <a href=""./imgNWTK/debrief_3205.pdf"" target=""_blank"">here</a> to download a copy.</p><p style=""text-align:left;"">Then, <b>please click the below button</b> to confirm that you have received your debrief and to complete the study. Upon clicking ""Finish!"", your SONA credit will be automatically assigned.</p>","0","html-button-response","96","2002677","0.0-18.0","male","19","Australia","48943","24612","neither","neither","imgNWTK/KeepItSecret.jpg","imgNWTK/FindOutNow.jpg","info","eq","2.42","","","","","","","","","","","","","",""
