"rt","stimulus","button_pressed","trial_type","trial_index","time_elapsed","internal_node_id","gender","age","language","PID","sona_id","subStim","optStim","stim1","stim2","infoCond","optimCond","bonus","responses","banditTrial","choice","cue","feedback","estimateData","leftOption","rightOption","choiceName","leftInput","rightInput","key_press","postQ","singleEst"
"3779","<p>Thank you for signing up to participate in SONA Study 465! <br> During this study, please focus on the experiment and refrain from activities such as:</p>- <b>Switching to other tabs on your browser (this will be monitored via the experiment)</br> - Using your mobile phone/cell phone</br> - Communicating with others</br></br></b><p>This way, you are helping to provide data that is useful for psychological research. We thank you for your cooperation!</p>","0","html-button-response","0","3784","0.0-0.0","male","18","Australia","60251","25185","imgNWTK/square.png","imgNWTK/triangle.png","imgNWTK/square.png","imgNWTK/triangle.png","noninfo","optim","3.79","","","","","","","","","","","","","",""
"980","<p>Welcome to the experiment!</p><p>You will now read some instructions about the task. Press the 'Next' button to continue. </p>","0","html-button-response","1","4766","0.0-1.0","male","18","Australia","60251","25185","imgNWTK/square.png","imgNWTK/triangle.png","imgNWTK/square.png","imgNWTK/triangle.png","noninfo","optim","3.79","","","","","","","","","","","","","",""
"12318","<p> On each trial throughout the experiment you will choose between two options, </br>a <b>Black Square </b> and <b> Black Triangle </b>, as seen below.</p><div><div style= 'float: left; width: 300px; margin: 10px 10px;'><img src= 'imgNWTK/square.png'></img></div><div style= 'float: right; width: 300px; margin: 10px 10px;'><img src= 'imgNWTK/triangle.png'></img></div></div><br/><br/><br/><br/><br/><br/><br/><br/><br/><br/><br/><p>Each option results in winning points or receiving 0 points.</br>There is a 50% chance of either winning or receiving 0 points.</p><p>You won't receive the outcome until after a <b> 20 second delay</b>.</p>","0","html-button-response","2","17087","0.0-2.0-0.0","male","18","Australia","60251","25185","imgNWTK/square.png","imgNWTK/triangle.png","imgNWTK/square.png","imgNWTK/triangle.png","noninfo","optim","3.79","","","","","","","","","","","","","",""
"18456","<img src= 'imgNWTK/NonInfoDiagram.png'></img><p>As seen above, whether you choose the square or triangle, you will receive a coloured circle after the choice. </p> <p>This circle will be on screen for 20 seconds until you win points or receive 0 points.</p><p>The coloured circle depends on which option you chose. </br> In the above example, choosing a triangle leads to a green circle and choosing the square leads to a red circle.</p>Please note: the circles in your task will be different to the above colours.</br></br>","0","html-button-response","3","35545","0.0-2.0-1.0","male","18","Australia","60251","25185","imgNWTK/square.png","imgNWTK/triangle.png","imgNWTK/square.png","imgNWTK/triangle.png","noninfo","optim","3.79","","","","","","","","","","","","","",""
"4252","<img src= 'cues/winTrials_noInfo.png' width = '1200'></img><p>To reiterate, 50% of the outcomes of each option will be WIN TRIALS, and the other 50% will be NO-WIN TRIALS.","0","html-button-response","4","39799","0.0-2.0-2.0","male","18","Australia","60251","25185","imgNWTK/square.png","imgNWTK/triangle.png","imgNWTK/square.png","imgNWTK/triangle.png","noninfo","optim","3.79","","","","","","","","","","","","","",""
"8442","<p> There will be <b>four blocks</b> in the experiment.</br>You will be given a short 15 second break between each block.</p><p><b>The points and the options will remain the same between the blocks.</b></p>The blocks are there just to give you a small break.</br></br></br></br><p>The points you earn in the task are also equal to <b> actual money</b>.</br> <b>1000 points is equal to $1 AUD</b></p><p>This is the rate you will be paid at the experiment's end.","0","html-button-response","5","48242","0.0-2.0-3.0","male","18","Australia","60251","25185","imgNWTK/square.png","imgNWTK/triangle.png","imgNWTK/square.png","imgNWTK/triangle.png","noninfo","optim","3.79","","","","","","","","","","","","","",""
"8844","","","survey-multi-choice","6","57093","0.0-2.0-4.0","male","18","Australia","60251","25185","imgNWTK/square.png","imgNWTK/triangle.png","imgNWTK/square.png","imgNWTK/triangle.png","noninfo","optim","3.79","{""Q0"":""20 Seconds"",""Q1"":""True"",""Q2"":""Equally""}","","","","","","","","","","","","",""
"3436","<p> Well done, all your answers were correct! <br> The experiment is about to start now. <br/> Click start to continue, or email your researcher <b>(amy.x.li@unsw.edu.au)</b> if you have any questions before starting.","0","html-button-response","7","60539","0.0-3.0","male","18","Australia","60251","25185","imgNWTK/square.png","imgNWTK/triangle.png","imgNWTK/square.png","imgNWTK/triangle.png","noninfo","optim","3.79","","","","","","","","","","","","","",""
"1609","","","bandit-task-exp6","8","66798","0.0-4.0-0.0","male","18","Australia","60251","25185","imgNWTK/square.png","imgNWTK/triangle.png","imgNWTK/square.png","imgNWTK/triangle.png","noninfo","optim","3.79","","1","1","2","0","null","imgNWTK/square.png","imgNWTK/triangle.png","imgNWTK/square.png","NaN","NaN","","",""
"3347","","","bandit-task-exp6","9","73298","0.0-4.0-0.1","male","18","Australia","60251","25185","imgNWTK/square.png","imgNWTK/triangle.png","imgNWTK/square.png","imgNWTK/triangle.png","noninfo","optim","3.79","","2","1","1","80","null","imgNWTK/square.png","imgNWTK/triangle.png","imgNWTK/square.png","NaN","NaN","","",""
"2364","","","bandit-task-exp6","10","78727","0.0-4.0-0.2","male","18","Australia","60251","25185","imgNWTK/square.png","imgNWTK/triangle.png","imgNWTK/square.png","imgNWTK/triangle.png","noninfo","optim","3.79","","3","1","2","0","null","imgNWTK/square.png","imgNWTK/triangle.png","imgNWTK/square.png","NaN","NaN","","",""
"1839","","","bandit-task-exp6","11","83335","0.0-4.0-0.3","male","18","Australia","60251","25185","imgNWTK/square.png","imgNWTK/triangle.png","imgNWTK/square.png","imgNWTK/triangle.png","noninfo","optim","3.79","","4","2","2","118","null","imgNWTK/square.png","imgNWTK/triangle.png","imgNWTK/triangle.png","NaN","NaN","","",""
"810","","","bandit-task-exp6","12","86861","0.0-4.0-0.4","male","18","Australia","60251","25185","imgNWTK/square.png","imgNWTK/triangle.png","imgNWTK/square.png","imgNWTK/triangle.png","noninfo","optim","3.79","","5","2","2","129","null","imgNWTK/square.png","imgNWTK/triangle.png","imgNWTK/triangle.png","NaN","NaN","","",""
"746","","","bandit-task-exp6","13","90625","0.0-4.0-0.5","male","18","Australia","60251","25185","imgNWTK/square.png","imgNWTK/triangle.png","imgNWTK/square.png","imgNWTK/triangle.png","noninfo","optim","3.79","","6","2","1","0","null","imgNWTK/square.png","imgNWTK/triangle.png","imgNWTK/triangle.png","NaN","NaN","","",""
"599","","","bandit-task-exp6","14","94048","0.0-4.0-0.6","male","18","Australia","60251","25185","imgNWTK/square.png","imgNWTK/triangle.png","imgNWTK/square.png","imgNWTK/triangle.png","noninfo","optim","3.79","","7","2","1","0","null","imgNWTK/square.png","imgNWTK/triangle.png","imgNWTK/triangle.png","NaN","NaN","","",""
"561","","","bandit-task-exp6","15","97318","0.0-4.0-0.7","male","18","Australia","60251","25185","imgNWTK/square.png","imgNWTK/triangle.png","imgNWTK/square.png","imgNWTK/triangle.png","noninfo","optim","3.79","","8","1","1","79","null","imgNWTK/triangle.png","imgNWTK/square.png","imgNWTK/square.png","NaN","NaN","","",""
"747","","","bandit-task-exp6","16","100625","0.0-4.0-0.8","male","18","Australia","60251","25185","imgNWTK/square.png","imgNWTK/triangle.png","imgNWTK/square.png","imgNWTK/triangle.png","noninfo","optim","3.79","","9","2","1","0","null","imgNWTK/triangle.png","imgNWTK/square.png","imgNWTK/triangle.png","NaN","NaN","","",""
"847","","","bandit-task-exp6","17","104179","0.0-4.0-0.9","male","18","Australia","60251","25185","imgNWTK/square.png","imgNWTK/triangle.png","imgNWTK/square.png","imgNWTK/triangle.png","noninfo","optim","3.79","","10","2","1","0","null","imgNWTK/square.png","imgNWTK/triangle.png","imgNWTK/triangle.png","NaN","NaN","","",""
"640","","","bandit-task-exp6","18","107402","0.0-4.0-0.10","male","18","Australia","60251","25185","imgNWTK/square.png","imgNWTK/triangle.png","imgNWTK/square.png","imgNWTK/triangle.png","noninfo","optim","3.79","","11","2","1","0","null","imgNWTK/square.png","imgNWTK/triangle.png","imgNWTK/triangle.png","NaN","NaN","","",""
"771","","","bandit-task-exp6","19","111035","0.0-4.0-0.11","male","18","Australia","60251","25185","imgNWTK/square.png","imgNWTK/triangle.png","imgNWTK/square.png","imgNWTK/triangle.png","noninfo","optim","3.79","","12","2","1","0","null","imgNWTK/triangle.png","imgNWTK/square.png","imgNWTK/triangle.png","NaN","NaN","","",""
"793","","","bandit-task-exp6","20","114567","0.0-4.0-0.12","male","18","Australia","60251","25185","imgNWTK/square.png","imgNWTK/triangle.png","imgNWTK/square.png","imgNWTK/triangle.png","noninfo","optim","3.79","","13","2","2","127","null","imgNWTK/square.png","imgNWTK/triangle.png","imgNWTK/triangle.png","NaN","NaN","","",""
"854","","","bandit-task-exp6","21","117919","0.0-4.0-0.13","male","18","Australia","60251","25185","imgNWTK/square.png","imgNWTK/triangle.png","imgNWTK/square.png","imgNWTK/triangle.png","noninfo","optim","3.79","","14","2","2","113","null","imgNWTK/square.png","imgNWTK/triangle.png","imgNWTK/triangle.png","NaN","NaN","","",""
"740","","","bandit-task-exp6","22","121141","0.0-4.0-0.14","male","18","Australia","60251","25185","imgNWTK/square.png","imgNWTK/triangle.png","imgNWTK/square.png","imgNWTK/triangle.png","noninfo","optim","3.79","","15","2","2","116","null","imgNWTK/square.png","imgNWTK/triangle.png","imgNWTK/triangle.png","NaN","NaN","","",""
"null","<p><b> Congratulations, you have finished this block. </b> </p><p>Please take a short break before moving onto the next block.</p><p>The next block will start after a 15 second break.</p><b>Remember, the point rewards are the same between blocks","","html-keyboard-response","23","136143","0.0-5.0","male","18","Australia","60251","25185","imgNWTK/square.png","imgNWTK/triangle.png","imgNWTK/square.png","imgNWTK/triangle.png","noninfo","optim","3.79","","","","","","","","","","","","null","",""
"1097","","","bandit-task-exp6","24","139685","0.0-6.0-0.0","male","18","Australia","60251","25185","imgNWTK/square.png","imgNWTK/triangle.png","imgNWTK/square.png","imgNWTK/triangle.png","noninfo","optim","3.79","","16","2","2","121","null","imgNWTK/triangle.png","imgNWTK/square.png","imgNWTK/triangle.png","NaN","NaN","","",""
"770","","","bandit-task-exp6","25","142938","0.0-6.0-0.1","male","18","Australia","60251","25185","imgNWTK/square.png","imgNWTK/triangle.png","imgNWTK/square.png","imgNWTK/triangle.png","noninfo","optim","3.79","","17","2","1","0","null","imgNWTK/square.png","imgNWTK/triangle.png","imgNWTK/triangle.png","NaN","NaN","","",""
"582","","","bandit-task-exp6","26","145919","0.0-6.0-0.2","male","18","Australia","60251","25185","imgNWTK/square.png","imgNWTK/triangle.png","imgNWTK/square.png","imgNWTK/triangle.png","noninfo","optim","3.79","","18","1","2","0","null","imgNWTK/square.png","imgNWTK/triangle.png","imgNWTK/square.png","NaN","NaN","","",""
"724","","","bandit-task-exp6","27","149009","0.0-6.0-0.3","male","18","Australia","60251","25185","imgNWTK/square.png","imgNWTK/triangle.png","imgNWTK/square.png","imgNWTK/triangle.png","noninfo","optim","3.79","","19","1","2","0","null","imgNWTK/triangle.png","imgNWTK/square.png","imgNWTK/square.png","NaN","NaN","","",""
"638","","","bandit-task-exp6","28","152074","0.0-6.0-0.4","male","18","Australia","60251","25185","imgNWTK/square.png","imgNWTK/triangle.png","imgNWTK/square.png","imgNWTK/triangle.png","noninfo","optim","3.79","","20","1","1","90","null","imgNWTK/square.png","imgNWTK/triangle.png","imgNWTK/square.png","NaN","NaN","","",""
"709","","","bandit-task-exp6","29","155173","0.0-6.0-0.5","male","18","Australia","60251","25185","imgNWTK/square.png","imgNWTK/triangle.png","imgNWTK/square.png","imgNWTK/triangle.png","noninfo","optim","3.79","","21","2","1","0","null","imgNWTK/square.png","imgNWTK/triangle.png","imgNWTK/triangle.png","NaN","NaN","","",""
"749","","","bandit-task-exp6","30","158341","0.0-6.0-0.6","male","18","Australia","60251","25185","imgNWTK/square.png","imgNWTK/triangle.png","imgNWTK/square.png","imgNWTK/triangle.png","noninfo","optim","3.79","","22","2","2","119","null","imgNWTK/triangle.png","imgNWTK/square.png","imgNWTK/triangle.png","NaN","NaN","","",""
"693","","","bandit-task-exp6","31","161469","0.0-6.0-0.7","male","18","Australia","60251","25185","imgNWTK/square.png","imgNWTK/triangle.png","imgNWTK/square.png","imgNWTK/triangle.png","noninfo","optim","3.79","","23","2","2","120","null","imgNWTK/square.png","imgNWTK/triangle.png","imgNWTK/triangle.png","NaN","NaN","","",""
"593","","","bandit-task-exp6","32","164637","0.0-6.0-0.8","male","18","Australia","60251","25185","imgNWTK/square.png","imgNWTK/triangle.png","imgNWTK/square.png","imgNWTK/triangle.png","noninfo","optim","3.79","","24","2","2","129","null","imgNWTK/square.png","imgNWTK/triangle.png","imgNWTK/triangle.png","NaN","NaN","","",""
"808","","","bandit-task-exp6","33","167827","0.0-6.0-0.9","male","18","Australia","60251","25185","imgNWTK/square.png","imgNWTK/triangle.png","imgNWTK/square.png","imgNWTK/triangle.png","noninfo","optim","3.79","","25","2","2","126","null","imgNWTK/triangle.png","imgNWTK/square.png","imgNWTK/triangle.png","NaN","NaN","","",""
"655","","","bandit-task-exp6","34","170809","0.0-6.0-0.10","male","18","Australia","60251","25185","imgNWTK/square.png","imgNWTK/triangle.png","imgNWTK/square.png","imgNWTK/triangle.png","noninfo","optim","3.79","","26","2","1","0","null","imgNWTK/square.png","imgNWTK/triangle.png","imgNWTK/triangle.png","NaN","NaN","","",""
"724","","","bandit-task-exp6","35","173961","0.0-6.0-0.11","male","18","Australia","60251","25185","imgNWTK/square.png","imgNWTK/triangle.png","imgNWTK/square.png","imgNWTK/triangle.png","noninfo","optim","3.79","","27","2","2","120","null","imgNWTK/triangle.png","imgNWTK/square.png","imgNWTK/triangle.png","NaN","NaN","","",""
"592","","","bandit-task-exp6","36","176981","0.0-6.0-0.12","male","18","Australia","60251","25185","imgNWTK/square.png","imgNWTK/triangle.png","imgNWTK/square.png","imgNWTK/triangle.png","noninfo","optim","3.79","","28","2","1","0","null","imgNWTK/triangle.png","imgNWTK/square.png","imgNWTK/triangle.png","NaN","NaN","","",""
"648","","","bandit-task-exp6","37","180016","0.0-6.0-0.13","male","18","Australia","60251","25185","imgNWTK/square.png","imgNWTK/triangle.png","imgNWTK/square.png","imgNWTK/triangle.png","noninfo","optim","3.79","","29","2","1","0","null","imgNWTK/square.png","imgNWTK/triangle.png","imgNWTK/triangle.png","NaN","NaN","","",""
"602","","","bandit-task-exp6","38","182945","0.0-6.0-0.14","male","18","Australia","60251","25185","imgNWTK/square.png","imgNWTK/triangle.png","imgNWTK/square.png","imgNWTK/triangle.png","noninfo","optim","3.79","","30","2","2","124","null","imgNWTK/triangle.png","imgNWTK/square.png","imgNWTK/triangle.png","NaN","NaN","","",""
"null","<p><b> Congratulations, you have finished this block. </b> </p><p>Please take a short break before moving onto the next block.</p><p>The next block will start after a 15 second break.</p><b>Remember, the point rewards are the same between blocks","","html-keyboard-response","39","198703","0.0-7.0","male","18","Australia","60251","25185","imgNWTK/square.png","imgNWTK/triangle.png","imgNWTK/square.png","imgNWTK/triangle.png","noninfo","optim","3.79","","","","","","","","","","","","null","",""
"1165","","","bandit-task-exp6","40","202360","0.0-8.0-0.0","male","18","Australia","60251","25185","imgNWTK/square.png","imgNWTK/triangle.png","imgNWTK/square.png","imgNWTK/triangle.png","noninfo","optim","3.79","","31","2","1","0","null","imgNWTK/square.png","imgNWTK/triangle.png","imgNWTK/triangle.png","NaN","NaN","","",""
"622","","","bandit-task-exp6","41","205409","0.0-8.0-0.1","male","18","Australia","60251","25185","imgNWTK/square.png","imgNWTK/triangle.png","imgNWTK/square.png","imgNWTK/triangle.png","noninfo","optim","3.79","","32","2","2","118","null","imgNWTK/square.png","imgNWTK/triangle.png","imgNWTK/triangle.png","NaN","NaN","","",""
"616","","","bandit-task-exp6","42","208437","0.0-8.0-0.2","male","18","Australia","60251","25185","imgNWTK/square.png","imgNWTK/triangle.png","imgNWTK/square.png","imgNWTK/triangle.png","noninfo","optim","3.79","","33","2","2","124","null","imgNWTK/square.png","imgNWTK/triangle.png","imgNWTK/triangle.png","NaN","NaN","","",""
"703","","","bandit-task-exp6","43","211535","0.0-8.0-0.3","male","18","Australia","60251","25185","imgNWTK/square.png","imgNWTK/triangle.png","imgNWTK/square.png","imgNWTK/triangle.png","noninfo","optim","3.79","","34","2","1","0","null","imgNWTK/triangle.png","imgNWTK/square.png","imgNWTK/triangle.png","NaN","NaN","","",""
"739","","","bandit-task-exp6","44","214682","0.0-8.0-0.4","male","18","Australia","60251","25185","imgNWTK/square.png","imgNWTK/triangle.png","imgNWTK/square.png","imgNWTK/triangle.png","noninfo","optim","3.79","","35","2","2","110","null","imgNWTK/square.png","imgNWTK/triangle.png","imgNWTK/triangle.png","NaN","NaN","","",""
"638","","","bandit-task-exp6","45","217710","0.0-8.0-0.5","male","18","Australia","60251","25185","imgNWTK/square.png","imgNWTK/triangle.png","imgNWTK/square.png","imgNWTK/triangle.png","noninfo","optim","3.79","","36","2","2","117","null","imgNWTK/triangle.png","imgNWTK/square.png","imgNWTK/triangle.png","NaN","NaN","","",""
"700","","","bandit-task-exp6","46","220630","0.0-8.0-0.6","male","18","Australia","60251","25185","imgNWTK/square.png","imgNWTK/triangle.png","imgNWTK/square.png","imgNWTK/triangle.png","noninfo","optim","3.79","","37","2","2","113","null","imgNWTK/square.png","imgNWTK/triangle.png","imgNWTK/triangle.png","NaN","NaN","","",""
"671","","","bandit-task-exp6","47","223680","0.0-8.0-0.7","male","18","Australia","60251","25185","imgNWTK/square.png","imgNWTK/triangle.png","imgNWTK/square.png","imgNWTK/triangle.png","noninfo","optim","3.79","","38","2","2","117","null","imgNWTK/square.png","imgNWTK/triangle.png","imgNWTK/triangle.png","NaN","NaN","","",""
"701","","","bandit-task-exp6","48","226725","0.0-8.0-0.8","male","18","Australia","60251","25185","imgNWTK/square.png","imgNWTK/triangle.png","imgNWTK/square.png","imgNWTK/triangle.png","noninfo","optim","3.79","","39","2","2","124","null","imgNWTK/triangle.png","imgNWTK/square.png","imgNWTK/triangle.png","NaN","NaN","","",""
"701","","","bandit-task-exp6","49","229793","0.0-8.0-0.9","male","18","Australia","60251","25185","imgNWTK/square.png","imgNWTK/triangle.png","imgNWTK/square.png","imgNWTK/triangle.png","noninfo","optim","3.79","","40","2","2","118","null","imgNWTK/square.png","imgNWTK/triangle.png","imgNWTK/triangle.png","NaN","NaN","","",""
"559","","","bandit-task-exp6","50","232733","0.0-8.0-0.10","male","18","Australia","60251","25185","imgNWTK/square.png","imgNWTK/triangle.png","imgNWTK/square.png","imgNWTK/triangle.png","noninfo","optim","3.79","","41","2","2","117","null","imgNWTK/triangle.png","imgNWTK/square.png","imgNWTK/triangle.png","NaN","NaN","","",""
"547","","","bandit-task-exp6","51","235677","0.0-8.0-0.11","male","18","Australia","60251","25185","imgNWTK/square.png","imgNWTK/triangle.png","imgNWTK/square.png","imgNWTK/triangle.png","noninfo","optim","3.79","","42","2","2","124","null","imgNWTK/square.png","imgNWTK/triangle.png","imgNWTK/triangle.png","NaN","NaN","","",""
"576","","","bandit-task-exp6","52","238682","0.0-8.0-0.12","male","18","Australia","60251","25185","imgNWTK/square.png","imgNWTK/triangle.png","imgNWTK/square.png","imgNWTK/triangle.png","noninfo","optim","3.79","","43","2","1","0","null","imgNWTK/square.png","imgNWTK/triangle.png","imgNWTK/triangle.png","NaN","NaN","","",""
"662","","","bandit-task-exp6","53","241741","0.0-8.0-0.13","male","18","Australia","60251","25185","imgNWTK/square.png","imgNWTK/triangle.png","imgNWTK/square.png","imgNWTK/triangle.png","noninfo","optim","3.79","","44","2","2","113","null","imgNWTK/triangle.png","imgNWTK/square.png","imgNWTK/triangle.png","NaN","NaN","","",""
"746","","","bandit-task-exp6","54","244885","0.0-8.0-0.14","male","18","Australia","60251","25185","imgNWTK/square.png","imgNWTK/triangle.png","imgNWTK/square.png","imgNWTK/triangle.png","noninfo","optim","3.79","","45","2","1","0","null","imgNWTK/square.png","imgNWTK/triangle.png","imgNWTK/triangle.png","NaN","NaN","","",""
"null","<p><b> Congratulations, you have finished this block. </b> </p><p>Please take a short break before moving onto the next block.</p><p>The next block will start after a 15 second break.</p><b>Remember, the point rewards are the same between blocks","","html-keyboard-response","55","260763","0.0-9.0","male","18","Australia","60251","25185","imgNWTK/square.png","imgNWTK/triangle.png","imgNWTK/square.png","imgNWTK/triangle.png","noninfo","optim","3.79","","","","","","","","","","","","null","",""
"9682","","","bandit-task-exp6","56","273044","0.0-10.0-0.0","male","18","Australia","60251","25185","imgNWTK/square.png","imgNWTK/triangle.png","imgNWTK/square.png","imgNWTK/triangle.png","noninfo","optim","3.79","","46","2","2","121","null","imgNWTK/triangle.png","imgNWTK/square.png","imgNWTK/triangle.png","120","80","","",""
"4294","","","bandit-task-exp6","57","279959","0.0-10.0-0.1","male","18","Australia","60251","25185","imgNWTK/square.png","imgNWTK/triangle.png","imgNWTK/square.png","imgNWTK/triangle.png","noninfo","optim","3.79","","47","2","1","0","null","imgNWTK/triangle.png","imgNWTK/square.png","imgNWTK/triangle.png","120","80","","",""
"3003","","","bandit-task-exp6","58","285522","0.0-10.0-0.2","male","18","Australia","60251","25185","imgNWTK/square.png","imgNWTK/triangle.png","imgNWTK/square.png","imgNWTK/triangle.png","noninfo","optim","3.79","","48","1","1","84","null","imgNWTK/square.png","imgNWTK/triangle.png","imgNWTK/square.png","120","80","","",""
"3394","","","bandit-task-exp6","59","291486","0.0-10.0-0.3","male","18","Australia","60251","25185","imgNWTK/square.png","imgNWTK/triangle.png","imgNWTK/square.png","imgNWTK/triangle.png","noninfo","optim","3.79","","49","2","2","116","null","imgNWTK/square.png","imgNWTK/triangle.png","imgNWTK/triangle.png","80","120","","",""
"4014","","","bandit-task-exp6","60","297999","0.0-10.0-0.4","male","18","Australia","60251","25185","imgNWTK/square.png","imgNWTK/triangle.png","imgNWTK/square.png","imgNWTK/triangle.png","noninfo","optim","3.79","","50","2","2","113","null","imgNWTK/square.png","imgNWTK/triangle.png","imgNWTK/triangle.png","80","120","","",""
"2543","","","bandit-task-exp6","61","303064","0.0-10.0-0.5","male","18","Australia","60251","25185","imgNWTK/square.png","imgNWTK/triangle.png","imgNWTK/square.png","imgNWTK/triangle.png","noninfo","optim","3.79","","51","2","1","0","null","imgNWTK/triangle.png","imgNWTK/square.png","imgNWTK/triangle.png","120","80","","",""
"2628","","","bandit-task-exp6","62","308216","0.0-10.0-0.6","male","18","Australia","60251","25185","imgNWTK/square.png","imgNWTK/triangle.png","imgNWTK/square.png","imgNWTK/triangle.png","noninfo","optim","3.79","","52","2","2","117","null","imgNWTK/square.png","imgNWTK/triangle.png","imgNWTK/triangle.png","80","120","","",""
"3179","","","bandit-task-exp6","63","313900","0.0-10.0-0.7","male","18","Australia","60251","25185","imgNWTK/square.png","imgNWTK/triangle.png","imgNWTK/square.png","imgNWTK/triangle.png","noninfo","optim","3.79","","53","2","1","0","null","imgNWTK/square.png","imgNWTK/triangle.png","imgNWTK/triangle.png","80","120","","",""
"5805","","","bandit-task-exp6","64","322576","0.0-10.0-0.8","male","18","Australia","60251","25185","imgNWTK/square.png","imgNWTK/triangle.png","imgNWTK/square.png","imgNWTK/triangle.png","noninfo","optim","3.79","","54","2","1","0","null","imgNWTK/square.png","imgNWTK/triangle.png","imgNWTK/triangle.png","80","120","","",""
"2510","","","bandit-task-exp6","65","327618","0.0-10.0-0.9","male","18","Australia","60251","25185","imgNWTK/square.png","imgNWTK/triangle.png","imgNWTK/square.png","imgNWTK/triangle.png","noninfo","optim","3.79","","55","2","1","0","null","imgNWTK/square.png","imgNWTK/triangle.png","imgNWTK/triangle.png","80","120","","",""
"2829","","","bandit-task-exp6","66","333008","0.0-10.0-0.10","male","18","Australia","60251","25185","imgNWTK/square.png","imgNWTK/triangle.png","imgNWTK/square.png","imgNWTK/triangle.png","noninfo","optim","3.79","","56","2","2","117","null","imgNWTK/square.png","imgNWTK/triangle.png","imgNWTK/triangle.png","80","120","","",""
"3155","","","bandit-task-exp6","67","338686","0.0-10.0-0.11","male","18","Australia","60251","25185","imgNWTK/square.png","imgNWTK/triangle.png","imgNWTK/square.png","imgNWTK/triangle.png","noninfo","optim","3.79","","57","2","2","119","null","imgNWTK/square.png","imgNWTK/triangle.png","imgNWTK/triangle.png","80","120","","",""
"2696","","","bandit-task-exp6","68","343898","0.0-10.0-0.12","male","18","Australia","60251","25185","imgNWTK/square.png","imgNWTK/triangle.png","imgNWTK/square.png","imgNWTK/triangle.png","noninfo","optim","3.79","","58","2","1","0","null","imgNWTK/square.png","imgNWTK/triangle.png","imgNWTK/triangle.png","80","120","","",""
"2651","","","bandit-task-exp6","69","349055","0.0-10.0-0.13","male","18","Australia","60251","25185","imgNWTK/square.png","imgNWTK/triangle.png","imgNWTK/square.png","imgNWTK/triangle.png","noninfo","optim","3.79","","59","2","1","0","null","imgNWTK/triangle.png","imgNWTK/square.png","imgNWTK/triangle.png","120","80","","",""
"2791","","","bandit-task-exp6","70","354344","0.0-10.0-0.14","male","18","Australia","60251","25185","imgNWTK/square.png","imgNWTK/triangle.png","imgNWTK/square.png","imgNWTK/triangle.png","noninfo","optim","3.79","","60","2","1","0","null","imgNWTK/square.png","imgNWTK/triangle.png","imgNWTK/triangle.png","80","120","","",""
"1609","<p> Congratulations, you have finished the main part of the experiment. </p><p>Before you finish, we have a few short questions about the options and outcomes you saw in the task.</p>","0","html-button-response","71","355956","0.0-11.0","male","18","Australia","60251","25185","imgNWTK/square.png","imgNWTK/triangle.png","imgNWTK/square.png","imgNWTK/triangle.png","noninfo","optim","3.79","","","","","","","","","","","","","",""
"6218","<p><b>Now, imagine that you clicked on the below button for another 10 trials (this includes <i> BOTH WIN and NO-WIN trials</i>).</p> <img src= 'imgNWTK/triangle.png'></img></br></br> <p><b>Please type the reward (number of points) you would expect to receive on every trial.</br> Click start to begin.</p>","0","html-button-response","72","362176","0.0-12.0","male","18","Australia","60251","25185","imgNWTK/square.png","imgNWTK/triangle.png","imgNWTK/square.png","imgNWTK/triangle.png","noninfo","optim","3.79","","","","","","","","","","","","","",""
"2784.0999999046326","","","survey-number","73","364966","0.0-13.0-0.0","male","18","Australia","60251","25185","imgNWTK/square.png","imgNWTK/triangle.png","imgNWTK/square.png","imgNWTK/triangle.png","noninfo","optim","3.79","{""undefined"":""120""}","","","","","","","","","","","","imgNWTK/triangle.png",""
"3246.5","","","survey-number","74","368217","0.0-13.0-0.1","male","18","Australia","60251","25185","imgNWTK/square.png","imgNWTK/triangle.png","imgNWTK/square.png","imgNWTK/triangle.png","noninfo","optim","3.79","{""undefined"":""120""}","","","","","","","","","","","","imgNWTK/triangle.png",""
"1363.5","","","survey-number","75","369585","0.0-13.0-0.2","male","18","Australia","60251","25185","imgNWTK/square.png","imgNWTK/triangle.png","imgNWTK/square.png","imgNWTK/triangle.png","noninfo","optim","3.79","{""undefined"":""0""}","","","","","","","","","","","","imgNWTK/triangle.png",""
"1255.2999999523163","","","survey-number","76","370846","0.0-13.0-0.3","male","18","Australia","60251","25185","imgNWTK/square.png","imgNWTK/triangle.png","imgNWTK/square.png","imgNWTK/triangle.png","noninfo","optim","3.79","{""undefined"":""0""}","","","","","","","","","","","","imgNWTK/triangle.png",""
"953.8999998569489","","","survey-number","77","371805","0.0-13.0-0.4","male","18","Australia","60251","25185","imgNWTK/square.png","imgNWTK/triangle.png","imgNWTK/square.png","imgNWTK/triangle.png","noninfo","optim","3.79","{""undefined"":""120""}","","","","","","","","","","","","imgNWTK/triangle.png",""
"564.8999998569489","","","survey-number","78","372377","0.0-13.0-0.5","male","18","Australia","60251","25185","imgNWTK/square.png","imgNWTK/triangle.png","imgNWTK/square.png","imgNWTK/triangle.png","noninfo","optim","3.79","{""undefined"":""0""}","","","","","","","","","","","","imgNWTK/triangle.png",""
"983.1000001430511","","","survey-number","79","373365","0.0-13.0-0.6","male","18","Australia","60251","25185","imgNWTK/square.png","imgNWTK/triangle.png","imgNWTK/square.png","imgNWTK/triangle.png","noninfo","optim","3.79","{""undefined"":""120""}","","","","","","","","","","","","imgNWTK/triangle.png",""
"505.7000000476837","","","survey-number","80","373876","0.0-13.0-0.7","male","18","Australia","60251","25185","imgNWTK/square.png","imgNWTK/triangle.png","imgNWTK/square.png","imgNWTK/triangle.png","noninfo","optim","3.79","{""undefined"":""0""}","","","","","","","","","","","","imgNWTK/triangle.png",""
"564.2000000476837","","","survey-number","81","374445","0.0-13.0-0.8","male","18","Australia","60251","25185","imgNWTK/square.png","imgNWTK/triangle.png","imgNWTK/square.png","imgNWTK/triangle.png","noninfo","optim","3.79","{""undefined"":""120""}","","","","","","","","","","","","imgNWTK/triangle.png",""
"806","","","survey-number","82","375256","0.0-13.0-0.9","male","18","Australia","60251","25185","imgNWTK/square.png","imgNWTK/triangle.png","imgNWTK/square.png","imgNWTK/triangle.png","noninfo","optim","3.79","{""undefined"":""120""}","","","","","","","","","","","","imgNWTK/triangle.png",""
"1456","<p><b>Imagine that you clicked on the below button for another 10 trials (this includes <i> both WIN and NO-WIN trials</i>).</p> <img src= 'imgNWTK/square.png'></img></br></br> <p><b>Please type the reward (number of points) you would expect to receive on every trial.</br> Click start to begin.</p>","0","html-button-response","83","376714","0.0-14.0","male","18","Australia","60251","25185","imgNWTK/square.png","imgNWTK/triangle.png","imgNWTK/square.png","imgNWTK/triangle.png","noninfo","optim","3.79","","","","","","","","","","","","","",""
"967.9000000953674","","","survey-number","84","377686","0.0-15.0-0.0","male","18","Australia","60251","25185","imgNWTK/square.png","imgNWTK/triangle.png","imgNWTK/square.png","imgNWTK/triangle.png","noninfo","optim","3.79","{""undefined"":""80""}","","","","","","","","","","","","imgNWTK/square.png",""
"683.8999998569489","","","survey-number","85","378375","0.0-15.0-0.1","male","18","Australia","60251","25185","imgNWTK/square.png","imgNWTK/triangle.png","imgNWTK/square.png","imgNWTK/triangle.png","noninfo","optim","3.79","{""undefined"":""0""}","","","","","","","","","","","","imgNWTK/square.png",""
"656","","","survey-number","86","379036","0.0-15.0-0.2","male","18","Australia","60251","25185","imgNWTK/square.png","imgNWTK/triangle.png","imgNWTK/square.png","imgNWTK/triangle.png","noninfo","optim","3.79","{""undefined"":""80""}","","","","","","","","","","","","imgNWTK/square.png",""
"505.40000009536743","","","survey-number","87","379546","0.0-15.0-0.3","male","18","Australia","60251","25185","imgNWTK/square.png","imgNWTK/triangle.png","imgNWTK/square.png","imgNWTK/triangle.png","noninfo","optim","3.79","{""undefined"":""80""}","","","","","","","","","","","","imgNWTK/square.png",""
"414.90000009536743","","","survey-number","88","379965","0.0-15.0-0.4","male","18","Australia","60251","25185","imgNWTK/square.png","imgNWTK/triangle.png","imgNWTK/square.png","imgNWTK/triangle.png","noninfo","optim","3.79","{""undefined"":""0""}","","","","","","","","","","","","imgNWTK/square.png",""
"504.90000009536743","","","survey-number","89","380475","0.0-15.0-0.5","male","18","Australia","60251","25185","imgNWTK/square.png","imgNWTK/triangle.png","imgNWTK/square.png","imgNWTK/triangle.png","noninfo","optim","3.79","{""undefined"":""0""}","","","","","","","","","","","","imgNWTK/square.png",""
"386.30000019073486","","","survey-number","90","380866","0.0-15.0-0.6","male","18","Australia","60251","25185","imgNWTK/square.png","imgNWTK/triangle.png","imgNWTK/square.png","imgNWTK/triangle.png","noninfo","optim","3.79","{""undefined"":""0""}","","","","","","","","","","","","imgNWTK/square.png",""
"535.4000000953674","","","survey-number","91","381405","0.0-15.0-0.7","male","18","Australia","60251","25185","imgNWTK/square.png","imgNWTK/triangle.png","imgNWTK/square.png","imgNWTK/triangle.png","noninfo","optim","3.79","{""undefined"":""80""}","","","","","","","","","","","","imgNWTK/square.png",""
"534.9000000953674","","","survey-number","92","381946","0.0-15.0-0.8","male","18","Australia","60251","25185","imgNWTK/square.png","imgNWTK/triangle.png","imgNWTK/square.png","imgNWTK/triangle.png","noninfo","optim","3.79","{""undefined"":""80""}","","","","","","","","","","","","imgNWTK/square.png",""
"415.2999999523163","","","survey-number","93","382365","0.0-15.0-0.9","male","18","Australia","60251","25185","imgNWTK/square.png","imgNWTK/triangle.png","imgNWTK/square.png","imgNWTK/triangle.png","noninfo","optim","3.79","{""undefined"":""0""}","","","","","","","","","","","","imgNWTK/square.png",""
"11501.299999952316","","","survey-number","94","393880","0.0-16.0","male","18","Australia","60251","25185","imgNWTK/square.png","imgNWTK/triangle.png","imgNWTK/square.png","imgNWTK/triangle.png","noninfo","optim","3.79","{""undefined"":""120""}","","","","","","","","","","","","","imgNWTK/triangle.png"
"1470.5999999046326","","","survey-number","95","395356","0.0-17.0","male","18","Australia","60251","25185","imgNWTK/square.png","imgNWTK/triangle.png","imgNWTK/square.png","imgNWTK/triangle.png","noninfo","optim","3.79","{""undefined"":""80""}","","","","","","","","","","","","","imgNWTK/square.png"
"18986","<p style=""text-align:left;"">Great! We are almost at the end of the study... (Please do not close the browser window yet.)</p><p> Your final points balance is 3793, which equals to a bonus payment of $3.79. Please collect your payment from Mathews Building Room 721 (Mon-Fri 9am-5pm); please email amy.x.li@unsw.edu.au at least 24 hours prior to collection so that this is ready for you.</p><p style=""text-align:left;"">To view the debriefing form, please click <a href=""./imgNWTK/debrief_3205.pdf"" target=""_blank"">here</a> to download a copy.</p><p style=""text-align:left;"">Then, <b>please click the below button</b> to confirm that you have received your debrief and to complete the study. Upon clicking ""Finish!"", your SONA credit will be automatically assigned.</p>","0","html-button-response","96","414344","0.0-18.0","male","18","Australia","60251","25185","imgNWTK/square.png","imgNWTK/triangle.png","imgNWTK/square.png","imgNWTK/triangle.png","noninfo","optim","3.79","","","","","","","","","","","","","",""
