"rt","stimulus","button_pressed","trial_type","trial_index","time_elapsed","internal_node_id","gender","age","language","PID","sona_id","subStim","optStim","stim1","stim2","infoCond","optimCond","bonus","responses","banditTrial","choice","cue","feedback","estimateData","leftOption","rightOption","choiceName","leftInput","rightInput","key_press","postQ","singleEst"
"5776","<p>Thank you for signing up to participate in SONA Study 465! <br> During this study, please focus on the experiment and refrain from activities such as:</p>- <b>Switching to other tabs on your browser (this will be monitored via the experiment)</br> - Using your mobile phone/cell phone</br> - Communicating with others</br></br></b><p>This way, you are helping to provide data that is useful for psychological research. We thank you for your cooperation!</p>","0","html-button-response","0","5780","0.0-0.0","female","18","Australia","67190","24779","imgNWTK/KeepItSecret.jpg","imgNWTK/FindOutNow.jpg","imgNWTK/KeepItSecret.jpg","imgNWTK/FindOutNow.jpg","info","sub","3.25","","","","","","","","","","","","","",""
"2582","<p>Welcome to the experiment!</p><p>You will now read some instructions about the task. Press the 'Next' button to continue. </p>","0","html-button-response","1","8365","0.0-1.0","female","18","Australia","67190","24779","imgNWTK/KeepItSecret.jpg","imgNWTK/FindOutNow.jpg","imgNWTK/KeepItSecret.jpg","imgNWTK/FindOutNow.jpg","info","sub","3.25","","","","","","","","","","","","","",""
"15645","<p> On each trial throughout the experiment you will choose between the options </br><b> Find Out Now </b> and <b> Keep It Secret </b>, as shown below.</p><div><div style= 'float: left; width: 300px; margin: 10px 10px;'><img src= 'imgNWTK/KeepItSecret.jpg'></img></div><div style= 'float: right; width: 300px; margin: 10px 10px;'><img src= 'imgNWTK/FindOutNow.jpg'></img></div></div><br/><br/><br/><br/><br/><br/><br/><br/><br/><br/><br/><p>Each option results in winning points or receiving 0 points.</br>There is a 50% chance of either winning or receiving 0 points.</p><p>You won't receive the outcome until after a <b> 20 second delay</b>. However, selecting the Find Out Now option will allow you to find out about the outcome early, whereas the Keep It Secret option will not. </p>","0","html-button-response","2","24013","0.0-2.0-0.0","female","18","Australia","67190","24779","imgNWTK/KeepItSecret.jpg","imgNWTK/FindOutNow.jpg","imgNWTK/KeepItSecret.jpg","imgNWTK/FindOutNow.jpg","info","sub","3.25","","","","","","","","","","","","","",""
"29549","<img src= 'cues/Experiment6.png'></img><p>As seen above, when choosing the <b>'Find Out Now'</b> option, you will receive either a happy face or sad face.</br>The happy face means you will win points after the delay, whereas the sad face means you will receive 0 points.</br></p><p> When choosing the <b> 'Keep it Secret' </b> option you will receive a confused face.</br> This face appears regardless of whether you are going to win points or not. </p>In short, choosing 'Find Out Now' allows you to find out the outcome before you experience it (after the delay).</br></br>","0","html-button-response","3","53564","0.0-2.0-1.0","female","18","Australia","67190","24779","imgNWTK/KeepItSecret.jpg","imgNWTK/FindOutNow.jpg","imgNWTK/KeepItSecret.jpg","imgNWTK/FindOutNow.jpg","info","sub","3.25","","","","","","","","","","","","","",""
"5665","<img src= 'cues/winTrials_info.png' width = '1200'></img><p>To reiterate, 50% of the outcomes of each option will be WIN TRIALS, and the other 50% will be NO-WIN TRIALS.","0","html-button-response","4","59232","0.0-2.0-2.0","female","18","Australia","67190","24779","imgNWTK/KeepItSecret.jpg","imgNWTK/FindOutNow.jpg","imgNWTK/KeepItSecret.jpg","imgNWTK/FindOutNow.jpg","info","sub","3.25","","","","","","","","","","","","","",""
"16195","<p> There will be <b>four blocks</b> in the experiment.</br>You will be given a short 15 second break between each block.</p><p><b>The points and the options will remain the same between the blocks.</b></p>The blocks are there just to give you a small break.</br></br><p>The points you earn in the task are also equal to <b> actual money</b>.</br> <b>1000 points is equal to $1.</b></p><p>This is the rate you will be paid at the experiment's end.","0","html-button-response","5","75430","0.0-2.0-3.0","female","18","Australia","67190","24779","imgNWTK/KeepItSecret.jpg","imgNWTK/FindOutNow.jpg","imgNWTK/KeepItSecret.jpg","imgNWTK/FindOutNow.jpg","info","sub","3.25","","","","","","","","","","","","","",""
"17509","","","survey-multi-choice","6","92947","0.0-2.0-4.0","female","18","Australia","67190","24779","imgNWTK/KeepItSecret.jpg","imgNWTK/FindOutNow.jpg","imgNWTK/KeepItSecret.jpg","imgNWTK/FindOutNow.jpg","info","sub","3.25","{""Q0"":""20 Seconds"",""Q1"":""True"",""Q2"":""Equally"",""Q3"":""True""}","","","","","","","","","","","","",""
"7045","<p> Well done, all your answers were correct! <br> The experiment is about to start now. <br/> Click start to continue, or email your researcher <b>(amy.x.li@unsw.edu.au)</b> if you have any questions before starting.","0","html-button-response","7","99996","0.0-3.0","female","18","Australia","67190","24779","imgNWTK/KeepItSecret.jpg","imgNWTK/FindOutNow.jpg","imgNWTK/KeepItSecret.jpg","imgNWTK/FindOutNow.jpg","info","sub","3.25","","","","","","","","","","","","","",""
"2942","","","bandit-task-exp6","8","125582","0.0-4.0-0.0","female","18","Australia","67190","24779","imgNWTK/KeepItSecret.jpg","imgNWTK/FindOutNow.jpg","imgNWTK/KeepItSecret.jpg","imgNWTK/FindOutNow.jpg","info","sub","3.25","","1","2","1","0","null","imgNWTK/KeepItSecret.jpg","imgNWTK/FindOutNow.jpg","imgNWTK/FindOutNow.jpg","NaN","NaN","","",""
"1275","","","bandit-task-exp6","9","152866","0.0-4.0-0.1","female","18","Australia","67190","24779","imgNWTK/KeepItSecret.jpg","imgNWTK/FindOutNow.jpg","imgNWTK/KeepItSecret.jpg","imgNWTK/FindOutNow.jpg","info","sub","3.25","","2","1","2","0","null","imgNWTK/FindOutNow.jpg","imgNWTK/KeepItSecret.jpg","imgNWTK/KeepItSecret.jpg","NaN","NaN","","",""
"2992","","","bandit-task-exp6","10","178849","0.0-4.0-0.2","female","18","Australia","67190","24779","imgNWTK/KeepItSecret.jpg","imgNWTK/FindOutNow.jpg","imgNWTK/KeepItSecret.jpg","imgNWTK/FindOutNow.jpg","info","sub","3.25","","3","1","2","0","null","imgNWTK/KeepItSecret.jpg","imgNWTK/FindOutNow.jpg","imgNWTK/KeepItSecret.jpg","NaN","NaN","","",""
"908","","","bandit-task-exp6","11","202216","0.0-4.0-0.3","female","18","Australia","67190","24779","imgNWTK/KeepItSecret.jpg","imgNWTK/FindOutNow.jpg","imgNWTK/KeepItSecret.jpg","imgNWTK/FindOutNow.jpg","info","sub","3.25","","4","1","1","112","null","imgNWTK/FindOutNow.jpg","imgNWTK/KeepItSecret.jpg","imgNWTK/KeepItSecret.jpg","NaN","NaN","","",""
"1326","","","bandit-task-exp6","12","225932","0.0-4.0-0.4","female","18","Australia","67190","24779","imgNWTK/KeepItSecret.jpg","imgNWTK/FindOutNow.jpg","imgNWTK/KeepItSecret.jpg","imgNWTK/FindOutNow.jpg","info","sub","3.25","","5","2","2","84","null","imgNWTK/FindOutNow.jpg","imgNWTK/KeepItSecret.jpg","imgNWTK/FindOutNow.jpg","NaN","NaN","","",""
"1292","","","bandit-task-exp6","13","249295","0.0-4.0-0.5","female","18","Australia","67190","24779","imgNWTK/KeepItSecret.jpg","imgNWTK/FindOutNow.jpg","imgNWTK/KeepItSecret.jpg","imgNWTK/FindOutNow.jpg","info","sub","3.25","","6","1","1","126","null","imgNWTK/FindOutNow.jpg","imgNWTK/KeepItSecret.jpg","imgNWTK/KeepItSecret.jpg","NaN","NaN","","",""
"946","","","bandit-task-exp6","14","272514","0.0-4.0-0.6","female","18","Australia","67190","24779","imgNWTK/KeepItSecret.jpg","imgNWTK/FindOutNow.jpg","imgNWTK/KeepItSecret.jpg","imgNWTK/FindOutNow.jpg","info","sub","3.25","","7","2","2","90","null","imgNWTK/FindOutNow.jpg","imgNWTK/KeepItSecret.jpg","imgNWTK/FindOutNow.jpg","NaN","NaN","","",""
"743","","","bandit-task-exp6","15","300933","0.0-4.0-0.7","female","18","Australia","67190","24779","imgNWTK/KeepItSecret.jpg","imgNWTK/FindOutNow.jpg","imgNWTK/KeepItSecret.jpg","imgNWTK/FindOutNow.jpg","info","sub","3.25","","8","1","1","113","null","imgNWTK/FindOutNow.jpg","imgNWTK/KeepItSecret.jpg","imgNWTK/KeepItSecret.jpg","NaN","NaN","","",""
"1409","","","bandit-task-exp6","16","327600","0.0-4.0-0.8","female","18","Australia","67190","24779","imgNWTK/KeepItSecret.jpg","imgNWTK/FindOutNow.jpg","imgNWTK/KeepItSecret.jpg","imgNWTK/FindOutNow.jpg","info","sub","3.25","","9","2","1","0","null","imgNWTK/FindOutNow.jpg","imgNWTK/KeepItSecret.jpg","imgNWTK/FindOutNow.jpg","NaN","NaN","","",""
"1159","","","bandit-task-exp6","17","350748","0.0-4.0-0.9","female","18","Australia","67190","24779","imgNWTK/KeepItSecret.jpg","imgNWTK/FindOutNow.jpg","imgNWTK/KeepItSecret.jpg","imgNWTK/FindOutNow.jpg","info","sub","3.25","","10","2","1","0","null","imgNWTK/KeepItSecret.jpg","imgNWTK/FindOutNow.jpg","imgNWTK/FindOutNow.jpg","NaN","NaN","","",""
"1211","","","bandit-task-exp6","18","373849","0.0-4.0-0.10","female","18","Australia","67190","24779","imgNWTK/KeepItSecret.jpg","imgNWTK/FindOutNow.jpg","imgNWTK/KeepItSecret.jpg","imgNWTK/FindOutNow.jpg","info","sub","3.25","","11","1","1","118","null","imgNWTK/FindOutNow.jpg","imgNWTK/KeepItSecret.jpg","imgNWTK/KeepItSecret.jpg","NaN","NaN","","",""
"976","","","bandit-task-exp6","19","397248","0.0-4.0-0.11","female","18","Australia","67190","24779","imgNWTK/KeepItSecret.jpg","imgNWTK/FindOutNow.jpg","imgNWTK/KeepItSecret.jpg","imgNWTK/FindOutNow.jpg","info","sub","3.25","","12","1","1","120","null","imgNWTK/FindOutNow.jpg","imgNWTK/KeepItSecret.jpg","imgNWTK/KeepItSecret.jpg","NaN","NaN","","",""
"828","","","bandit-task-exp6","20","420365","0.0-4.0-0.12","female","18","Australia","67190","24779","imgNWTK/KeepItSecret.jpg","imgNWTK/FindOutNow.jpg","imgNWTK/KeepItSecret.jpg","imgNWTK/FindOutNow.jpg","info","sub","3.25","","13","2","1","0","null","imgNWTK/FindOutNow.jpg","imgNWTK/KeepItSecret.jpg","imgNWTK/FindOutNow.jpg","NaN","NaN","","",""
"1593","","","bandit-task-exp6","21","444681","0.0-4.0-0.13","female","18","Australia","67190","24779","imgNWTK/KeepItSecret.jpg","imgNWTK/FindOutNow.jpg","imgNWTK/KeepItSecret.jpg","imgNWTK/FindOutNow.jpg","info","sub","3.25","","14","2","2","90","null","imgNWTK/KeepItSecret.jpg","imgNWTK/FindOutNow.jpg","imgNWTK/FindOutNow.jpg","NaN","NaN","","",""
"912","","","bandit-task-exp6","22","467681","0.0-4.0-0.14","female","18","Australia","67190","24779","imgNWTK/KeepItSecret.jpg","imgNWTK/FindOutNow.jpg","imgNWTK/KeepItSecret.jpg","imgNWTK/FindOutNow.jpg","info","sub","3.25","","15","1","1","124","null","imgNWTK/KeepItSecret.jpg","imgNWTK/FindOutNow.jpg","imgNWTK/KeepItSecret.jpg","NaN","NaN","","",""
"null","<p><b> Congratulations, you have finished this block. </b> </p><p>Please take a short break before moving onto the next block.</p><p>The next block will start after a 15 second break.</p><b>Remember, the point rewards are the same between blocks","","html-keyboard-response","23","482685","0.0-5.0","female","18","Australia","67190","24779","imgNWTK/KeepItSecret.jpg","imgNWTK/FindOutNow.jpg","imgNWTK/KeepItSecret.jpg","imgNWTK/FindOutNow.jpg","info","sub","3.25","","","","","","","","","","","","null","",""
"5306","","","bandit-task-exp6","24","510546","0.0-6.0-0.0","female","18","Australia","67190","24779","imgNWTK/KeepItSecret.jpg","imgNWTK/FindOutNow.jpg","imgNWTK/KeepItSecret.jpg","imgNWTK/FindOutNow.jpg","info","sub","3.25","","16","1","1","117","null","imgNWTK/KeepItSecret.jpg","imgNWTK/FindOutNow.jpg","imgNWTK/KeepItSecret.jpg","NaN","NaN","","",""
"762","","","bandit-task-exp6","25","533530","0.0-6.0-0.1","female","18","Australia","67190","24779","imgNWTK/KeepItSecret.jpg","imgNWTK/FindOutNow.jpg","imgNWTK/KeepItSecret.jpg","imgNWTK/FindOutNow.jpg","info","sub","3.25","","17","2","2","71","null","imgNWTK/KeepItSecret.jpg","imgNWTK/FindOutNow.jpg","imgNWTK/FindOutNow.jpg","NaN","NaN","","",""
"1113","","","bandit-task-exp6","26","556629","0.0-6.0-0.2","female","18","Australia","67190","24779","imgNWTK/KeepItSecret.jpg","imgNWTK/FindOutNow.jpg","imgNWTK/KeepItSecret.jpg","imgNWTK/FindOutNow.jpg","info","sub","3.25","","18","1","2","0","null","imgNWTK/FindOutNow.jpg","imgNWTK/KeepItSecret.jpg","imgNWTK/KeepItSecret.jpg","NaN","NaN","","",""
"897","","","bandit-task-exp6","27","580165","0.0-6.0-0.3","female","18","Australia","67190","24779","imgNWTK/KeepItSecret.jpg","imgNWTK/FindOutNow.jpg","imgNWTK/KeepItSecret.jpg","imgNWTK/FindOutNow.jpg","info","sub","3.25","","19","1","1","121","null","imgNWTK/FindOutNow.jpg","imgNWTK/KeepItSecret.jpg","imgNWTK/KeepItSecret.jpg","NaN","NaN","","",""
"828","","","bandit-task-exp6","28","603548","0.0-6.0-0.4","female","18","Australia","67190","24779","imgNWTK/KeepItSecret.jpg","imgNWTK/FindOutNow.jpg","imgNWTK/KeepItSecret.jpg","imgNWTK/FindOutNow.jpg","info","sub","3.25","","20","1","1","125","null","imgNWTK/KeepItSecret.jpg","imgNWTK/FindOutNow.jpg","imgNWTK/KeepItSecret.jpg","NaN","NaN","","",""
"1029","","","bandit-task-exp6","29","626532","0.0-6.0-0.5","female","18","Australia","67190","24779","imgNWTK/KeepItSecret.jpg","imgNWTK/FindOutNow.jpg","imgNWTK/KeepItSecret.jpg","imgNWTK/FindOutNow.jpg","info","sub","3.25","","21","2","1","0","null","imgNWTK/FindOutNow.jpg","imgNWTK/KeepItSecret.jpg","imgNWTK/FindOutNow.jpg","NaN","NaN","","",""
"1877","","","bandit-task-exp6","30","653865","0.0-6.0-0.6","female","18","Australia","67190","24779","imgNWTK/KeepItSecret.jpg","imgNWTK/FindOutNow.jpg","imgNWTK/KeepItSecret.jpg","imgNWTK/FindOutNow.jpg","info","sub","3.25","","22","1","2","0","null","imgNWTK/KeepItSecret.jpg","imgNWTK/FindOutNow.jpg","imgNWTK/KeepItSecret.jpg","NaN","NaN","","",""
"1195","","","bandit-task-exp6","31","680330","0.0-6.0-0.7","female","18","Australia","67190","24779","imgNWTK/KeepItSecret.jpg","imgNWTK/FindOutNow.jpg","imgNWTK/KeepItSecret.jpg","imgNWTK/FindOutNow.jpg","info","sub","3.25","","23","1","2","0","null","imgNWTK/KeepItSecret.jpg","imgNWTK/FindOutNow.jpg","imgNWTK/KeepItSecret.jpg","NaN","NaN","","",""
"2563","","","bandit-task-exp6","32","704816","0.0-6.0-0.8","female","18","Australia","67190","24779","imgNWTK/KeepItSecret.jpg","imgNWTK/FindOutNow.jpg","imgNWTK/KeepItSecret.jpg","imgNWTK/FindOutNow.jpg","info","sub","3.25","","24","2","1","0","null","imgNWTK/FindOutNow.jpg","imgNWTK/KeepItSecret.jpg","imgNWTK/FindOutNow.jpg","NaN","NaN","","",""
"660","","","bandit-task-exp6","33","731031","0.0-6.0-0.9","female","18","Australia","67190","24779","imgNWTK/KeepItSecret.jpg","imgNWTK/FindOutNow.jpg","imgNWTK/KeepItSecret.jpg","imgNWTK/FindOutNow.jpg","info","sub","3.25","","25","2","1","0","null","imgNWTK/FindOutNow.jpg","imgNWTK/KeepItSecret.jpg","imgNWTK/FindOutNow.jpg","NaN","NaN","","",""
"1663","","","bandit-task-exp6","34","755330","0.0-6.0-0.10","female","18","Australia","67190","24779","imgNWTK/KeepItSecret.jpg","imgNWTK/FindOutNow.jpg","imgNWTK/KeepItSecret.jpg","imgNWTK/FindOutNow.jpg","info","sub","3.25","","26","1","2","0","null","imgNWTK/KeepItSecret.jpg","imgNWTK/FindOutNow.jpg","imgNWTK/KeepItSecret.jpg","NaN","NaN","","",""
"630","","","bandit-task-exp6","35","779680","0.0-6.0-0.11","female","18","Australia","67190","24779","imgNWTK/KeepItSecret.jpg","imgNWTK/FindOutNow.jpg","imgNWTK/KeepItSecret.jpg","imgNWTK/FindOutNow.jpg","info","sub","3.25","","27","2","1","0","null","imgNWTK/FindOutNow.jpg","imgNWTK/KeepItSecret.jpg","imgNWTK/FindOutNow.jpg","NaN","NaN","","",""
"2780","","","bandit-task-exp6","36","805081","0.0-6.0-0.12","female","18","Australia","67190","24779","imgNWTK/KeepItSecret.jpg","imgNWTK/FindOutNow.jpg","imgNWTK/KeepItSecret.jpg","imgNWTK/FindOutNow.jpg","info","sub","3.25","","28","1","1","127","null","imgNWTK/FindOutNow.jpg","imgNWTK/KeepItSecret.jpg","imgNWTK/KeepItSecret.jpg","NaN","NaN","","",""
"912","","","bandit-task-exp6","37","828566","0.0-6.0-0.13","female","18","Australia","67190","24779","imgNWTK/KeepItSecret.jpg","imgNWTK/FindOutNow.jpg","imgNWTK/KeepItSecret.jpg","imgNWTK/FindOutNow.jpg","info","sub","3.25","","29","1","1","124","null","imgNWTK/KeepItSecret.jpg","imgNWTK/FindOutNow.jpg","imgNWTK/KeepItSecret.jpg","NaN","NaN","","",""
"1427","","","bandit-task-exp6","38","857498","0.0-6.0-0.14","female","18","Australia","67190","24779","imgNWTK/KeepItSecret.jpg","imgNWTK/FindOutNow.jpg","imgNWTK/KeepItSecret.jpg","imgNWTK/FindOutNow.jpg","info","sub","3.25","","30","2","1","0","null","imgNWTK/FindOutNow.jpg","imgNWTK/KeepItSecret.jpg","imgNWTK/FindOutNow.jpg","NaN","NaN","","",""
"null","<p><b> Congratulations, you have finished this block. </b> </p><p>Please take a short break before moving onto the next block.</p><p>The next block will start after a 15 second break.</p><b>Remember, the point rewards are the same between blocks","","html-keyboard-response","39","872503","0.0-7.0","female","18","Australia","67190","24779","imgNWTK/KeepItSecret.jpg","imgNWTK/FindOutNow.jpg","imgNWTK/KeepItSecret.jpg","imgNWTK/FindOutNow.jpg","info","sub","3.25","","","","","","","","","","","","null","",""
"3105","","","bandit-task-exp6","40","897781","0.0-8.0-0.0","female","18","Australia","67190","24779","imgNWTK/KeepItSecret.jpg","imgNWTK/FindOutNow.jpg","imgNWTK/KeepItSecret.jpg","imgNWTK/FindOutNow.jpg","info","sub","3.25","","31","1","1","119","null","imgNWTK/FindOutNow.jpg","imgNWTK/KeepItSecret.jpg","imgNWTK/KeepItSecret.jpg","NaN","NaN","","",""
"1662","","","bandit-task-exp6","41","921464","0.0-8.0-0.1","female","18","Australia","67190","24779","imgNWTK/KeepItSecret.jpg","imgNWTK/FindOutNow.jpg","imgNWTK/KeepItSecret.jpg","imgNWTK/FindOutNow.jpg","info","sub","3.25","","32","2","1","0","null","imgNWTK/FindOutNow.jpg","imgNWTK/KeepItSecret.jpg","imgNWTK/FindOutNow.jpg","NaN","NaN","","",""
"1562","","","bandit-task-exp6","42","946198","0.0-8.0-0.2","female","18","Australia","67190","24779","imgNWTK/KeepItSecret.jpg","imgNWTK/FindOutNow.jpg","imgNWTK/KeepItSecret.jpg","imgNWTK/FindOutNow.jpg","info","sub","3.25","","33","1","2","0","null","imgNWTK/KeepItSecret.jpg","imgNWTK/FindOutNow.jpg","imgNWTK/KeepItSecret.jpg","NaN","NaN","","",""
"1395","","","bandit-task-exp6","43","969850","0.0-8.0-0.3","female","18","Australia","67190","24779","imgNWTK/KeepItSecret.jpg","imgNWTK/FindOutNow.jpg","imgNWTK/KeepItSecret.jpg","imgNWTK/FindOutNow.jpg","info","sub","3.25","","34","1","2","0","null","imgNWTK/KeepItSecret.jpg","imgNWTK/FindOutNow.jpg","imgNWTK/KeepItSecret.jpg","NaN","NaN","","",""
"777","","","bandit-task-exp6","44","992618","0.0-8.0-0.4","female","18","Australia","67190","24779","imgNWTK/KeepItSecret.jpg","imgNWTK/FindOutNow.jpg","imgNWTK/KeepItSecret.jpg","imgNWTK/FindOutNow.jpg","info","sub","3.25","","35","2","2","88","null","imgNWTK/KeepItSecret.jpg","imgNWTK/FindOutNow.jpg","imgNWTK/FindOutNow.jpg","NaN","NaN","","",""
"993","","","bandit-task-exp6","45","1018934","0.0-8.0-0.5","female","18","Australia","67190","24779","imgNWTK/KeepItSecret.jpg","imgNWTK/FindOutNow.jpg","imgNWTK/KeepItSecret.jpg","imgNWTK/FindOutNow.jpg","info","sub","3.25","","36","2","1","0","null","imgNWTK/FindOutNow.jpg","imgNWTK/KeepItSecret.jpg","imgNWTK/FindOutNow.jpg","NaN","NaN","","",""
"4478","","","bandit-task-exp6","46","1050581","0.0-8.0-0.6","female","18","Australia","67190","24779","imgNWTK/KeepItSecret.jpg","imgNWTK/FindOutNow.jpg","imgNWTK/KeepItSecret.jpg","imgNWTK/FindOutNow.jpg","info","sub","3.25","","37","1","1","116","null","imgNWTK/KeepItSecret.jpg","imgNWTK/FindOutNow.jpg","imgNWTK/KeepItSecret.jpg","NaN","NaN","","",""
"3113","","","bandit-task-exp6","47","1076332","0.0-8.0-0.7","female","18","Australia","67190","24779","imgNWTK/KeepItSecret.jpg","imgNWTK/FindOutNow.jpg","imgNWTK/KeepItSecret.jpg","imgNWTK/FindOutNow.jpg","info","sub","3.25","","38","1","1","129","null","imgNWTK/FindOutNow.jpg","imgNWTK/KeepItSecret.jpg","imgNWTK/KeepItSecret.jpg","NaN","NaN","","",""
"2662","","","bandit-task-exp6","48","1100882","0.0-8.0-0.8","female","18","Australia","67190","24779","imgNWTK/KeepItSecret.jpg","imgNWTK/FindOutNow.jpg","imgNWTK/KeepItSecret.jpg","imgNWTK/FindOutNow.jpg","info","sub","3.25","","39","1","2","0","null","imgNWTK/KeepItSecret.jpg","imgNWTK/FindOutNow.jpg","imgNWTK/KeepItSecret.jpg","NaN","NaN","","",""
"728","","","bandit-task-exp6","49","1123532","0.0-8.0-0.9","female","18","Australia","67190","24779","imgNWTK/KeepItSecret.jpg","imgNWTK/FindOutNow.jpg","imgNWTK/KeepItSecret.jpg","imgNWTK/FindOutNow.jpg","info","sub","3.25","","40","2","2","75","null","imgNWTK/FindOutNow.jpg","imgNWTK/KeepItSecret.jpg","imgNWTK/FindOutNow.jpg","NaN","NaN","","",""
"1212","","","bandit-task-exp6","50","1147449","0.0-8.0-0.10","female","18","Australia","67190","24779","imgNWTK/KeepItSecret.jpg","imgNWTK/FindOutNow.jpg","imgNWTK/KeepItSecret.jpg","imgNWTK/FindOutNow.jpg","info","sub","3.25","","41","1","2","0","null","imgNWTK/FindOutNow.jpg","imgNWTK/KeepItSecret.jpg","imgNWTK/KeepItSecret.jpg","NaN","NaN","","",""
"629","","","bandit-task-exp6","51","1170583","0.0-8.0-0.11","female","18","Australia","67190","24779","imgNWTK/KeepItSecret.jpg","imgNWTK/FindOutNow.jpg","imgNWTK/KeepItSecret.jpg","imgNWTK/FindOutNow.jpg","info","sub","3.25","","42","1","2","0","null","imgNWTK/KeepItSecret.jpg","imgNWTK/FindOutNow.jpg","imgNWTK/KeepItSecret.jpg","NaN","NaN","","",""
"1944","","","bandit-task-exp6","52","1195166","0.0-8.0-0.12","female","18","Australia","67190","24779","imgNWTK/KeepItSecret.jpg","imgNWTK/FindOutNow.jpg","imgNWTK/KeepItSecret.jpg","imgNWTK/FindOutNow.jpg","info","sub","3.25","","43","2","2","84","null","imgNWTK/KeepItSecret.jpg","imgNWTK/FindOutNow.jpg","imgNWTK/FindOutNow.jpg","NaN","NaN","","",""
"1561","","","bandit-task-exp6","53","1218951","0.0-8.0-0.13","female","18","Australia","67190","24779","imgNWTK/KeepItSecret.jpg","imgNWTK/FindOutNow.jpg","imgNWTK/KeepItSecret.jpg","imgNWTK/FindOutNow.jpg","info","sub","3.25","","44","2","1","0","null","imgNWTK/KeepItSecret.jpg","imgNWTK/FindOutNow.jpg","imgNWTK/FindOutNow.jpg","NaN","NaN","","",""
"1346","","","bandit-task-exp6","54","1242418","0.0-8.0-0.14","female","18","Australia","67190","24779","imgNWTK/KeepItSecret.jpg","imgNWTK/FindOutNow.jpg","imgNWTK/KeepItSecret.jpg","imgNWTK/FindOutNow.jpg","info","sub","3.25","","45","2","2","72","null","imgNWTK/KeepItSecret.jpg","imgNWTK/FindOutNow.jpg","imgNWTK/FindOutNow.jpg","NaN","NaN","","",""
"null","<p><b> Congratulations, you have finished this block. </b> </p><p>Please take a short break before moving onto the next block.</p><p>The next block will start after a 15 second break.</p><b>Remember, the point rewards are the same between blocks","","html-keyboard-response","55","1257421","0.0-9.0","female","18","Australia","67190","24779","imgNWTK/KeepItSecret.jpg","imgNWTK/FindOutNow.jpg","imgNWTK/KeepItSecret.jpg","imgNWTK/FindOutNow.jpg","info","sub","3.25","","","","","","","","","","","","null","",""
"17406","","","bandit-task-exp6","56","1302983","0.0-10.0-0.0","female","18","Australia","67190","24779","imgNWTK/KeepItSecret.jpg","imgNWTK/FindOutNow.jpg","imgNWTK/KeepItSecret.jpg","imgNWTK/FindOutNow.jpg","info","sub","3.25","","46","1","2","0","null","imgNWTK/FindOutNow.jpg","imgNWTK/KeepItSecret.jpg","imgNWTK/KeepItSecret.jpg","70","124","","",""
"8845","","","bandit-task-exp6","57","1337268","0.0-10.0-0.1","female","18","Australia","67190","24779","imgNWTK/KeepItSecret.jpg","imgNWTK/FindOutNow.jpg","imgNWTK/KeepItSecret.jpg","imgNWTK/FindOutNow.jpg","info","sub","3.25","","47","1","1","116","null","imgNWTK/FindOutNow.jpg","imgNWTK/KeepItSecret.jpg","imgNWTK/KeepItSecret.jpg","70","124","","",""
"8443","","","bandit-task-exp6","58","1368100","0.0-10.0-0.2","female","18","Australia","67190","24779","imgNWTK/KeepItSecret.jpg","imgNWTK/FindOutNow.jpg","imgNWTK/KeepItSecret.jpg","imgNWTK/FindOutNow.jpg","info","sub","3.25","","48","2","2","90","null","imgNWTK/FindOutNow.jpg","imgNWTK/KeepItSecret.jpg","imgNWTK/FindOutNow.jpg","70","124","","",""
"6213","","","bandit-task-exp6","59","1397419","0.0-10.0-0.3","female","18","Australia","67190","24779","imgNWTK/KeepItSecret.jpg","imgNWTK/FindOutNow.jpg","imgNWTK/KeepItSecret.jpg","imgNWTK/FindOutNow.jpg","info","sub","3.25","","49","2","1","0","null","imgNWTK/KeepItSecret.jpg","imgNWTK/FindOutNow.jpg","imgNWTK/FindOutNow.jpg","80","110","","",""
"6442","","","bandit-task-exp6","60","1425899","0.0-10.0-0.4","female","18","Australia","67190","24779","imgNWTK/KeepItSecret.jpg","imgNWTK/FindOutNow.jpg","imgNWTK/KeepItSecret.jpg","imgNWTK/FindOutNow.jpg","info","sub","3.25","","50","1","1","119","null","imgNWTK/FindOutNow.jpg","imgNWTK/KeepItSecret.jpg","imgNWTK/KeepItSecret.jpg","60","110","","",""
"5829","","","bandit-task-exp6","61","1457203","0.0-10.0-0.5","female","18","Australia","67190","24779","imgNWTK/KeepItSecret.jpg","imgNWTK/FindOutNow.jpg","imgNWTK/KeepItSecret.jpg","imgNWTK/FindOutNow.jpg","info","sub","3.25","","51","2","1","0","null","imgNWTK/KeepItSecret.jpg","imgNWTK/FindOutNow.jpg","imgNWTK/FindOutNow.jpg","70","70","","",""
"6026","","","bandit-task-exp6","62","1485449","0.0-10.0-0.6","female","18","Australia","67190","24779","imgNWTK/KeepItSecret.jpg","imgNWTK/FindOutNow.jpg","imgNWTK/KeepItSecret.jpg","imgNWTK/FindOutNow.jpg","info","sub","3.25","","52","1","1","123","null","imgNWTK/FindOutNow.jpg","imgNWTK/KeepItSecret.jpg","imgNWTK/KeepItSecret.jpg","70","80","","",""
"9196","","","bandit-task-exp6","63","1519735","0.0-10.0-0.7","female","18","Australia","67190","24779","imgNWTK/KeepItSecret.jpg","imgNWTK/FindOutNow.jpg","imgNWTK/KeepItSecret.jpg","imgNWTK/FindOutNow.jpg","info","sub","3.25","","53","2","1","0","null","imgNWTK/FindOutNow.jpg","imgNWTK/KeepItSecret.jpg","imgNWTK/FindOutNow.jpg","70","100","","",""
"6376","","","bandit-task-exp6","64","1549033","0.0-10.0-0.8","female","18","Australia","67190","24779","imgNWTK/KeepItSecret.jpg","imgNWTK/FindOutNow.jpg","imgNWTK/KeepItSecret.jpg","imgNWTK/FindOutNow.jpg","info","sub","3.25","","54","2","1","0","null","imgNWTK/KeepItSecret.jpg","imgNWTK/FindOutNow.jpg","imgNWTK/FindOutNow.jpg","60","100","","",""
"11162","","","bandit-task-exp6","65","1582467","0.0-10.0-0.9","female","18","Australia","67190","24779","imgNWTK/KeepItSecret.jpg","imgNWTK/FindOutNow.jpg","imgNWTK/KeepItSecret.jpg","imgNWTK/FindOutNow.jpg","info","sub","3.25","","55","1","1","123","null","imgNWTK/KeepItSecret.jpg","imgNWTK/FindOutNow.jpg","imgNWTK/KeepItSecret.jpg","120","70","","",""
"5197","","","bandit-task-exp6","66","1610936","0.0-10.0-0.10","female","18","Australia","67190","24779","imgNWTK/KeepItSecret.jpg","imgNWTK/FindOutNow.jpg","imgNWTK/KeepItSecret.jpg","imgNWTK/FindOutNow.jpg","info","sub","3.25","","56","2","2","71","null","imgNWTK/FindOutNow.jpg","imgNWTK/KeepItSecret.jpg","imgNWTK/FindOutNow.jpg","70","120","","",""
"5542","","","bandit-task-exp6","67","1639569","0.0-10.0-0.11","female","18","Australia","67190","24779","imgNWTK/KeepItSecret.jpg","imgNWTK/FindOutNow.jpg","imgNWTK/KeepItSecret.jpg","imgNWTK/FindOutNow.jpg","info","sub","3.25","","57","2","2","78","null","imgNWTK/KeepItSecret.jpg","imgNWTK/FindOutNow.jpg","imgNWTK/FindOutNow.jpg","80","80","","",""
"10060","","","bandit-task-exp6","68","1673884","0.0-10.0-0.12","female","18","Australia","67190","24779","imgNWTK/KeepItSecret.jpg","imgNWTK/FindOutNow.jpg","imgNWTK/KeepItSecret.jpg","imgNWTK/FindOutNow.jpg","info","sub","3.25","","58","2","2","72","null","imgNWTK/FindOutNow.jpg","imgNWTK/KeepItSecret.jpg","imgNWTK/FindOutNow.jpg","80","90","","",""
"5144","","","bandit-task-exp6","69","1703534","0.0-10.0-0.13","female","18","Australia","67190","24779","imgNWTK/KeepItSecret.jpg","imgNWTK/FindOutNow.jpg","imgNWTK/KeepItSecret.jpg","imgNWTK/FindOutNow.jpg","info","sub","3.25","","59","2","1","0","null","imgNWTK/FindOutNow.jpg","imgNWTK/KeepItSecret.jpg","imgNWTK/FindOutNow.jpg","60","90","","",""
"4162","","","bandit-task-exp6","70","1729834","0.0-10.0-0.14","female","18","Australia","67190","24779","imgNWTK/KeepItSecret.jpg","imgNWTK/FindOutNow.jpg","imgNWTK/KeepItSecret.jpg","imgNWTK/FindOutNow.jpg","info","sub","3.25","","60","1","1","117","null","imgNWTK/KeepItSecret.jpg","imgNWTK/FindOutNow.jpg","imgNWTK/KeepItSecret.jpg","90","90","","",""
"2796","<p> Congratulations, you have finished the main part of the experiment. </p><p>Before you finish, we have a few short questions about the options and outcomes you saw in the task.</p>","0","html-button-response","71","1732634","0.0-11.0","female","18","Australia","67190","24779","imgNWTK/KeepItSecret.jpg","imgNWTK/FindOutNow.jpg","imgNWTK/KeepItSecret.jpg","imgNWTK/FindOutNow.jpg","info","sub","3.25","","","","","","","","","","","","","",""
"4346","<p><b>Now, imagine that you clicked on the below button for another 10 trials (this includes <i> BOTH WIN and NO-WIN trials</i>).</p> <img src= 'imgNWTK/FindOutNow.jpg'></img></br></br> <p><b>Please type the reward (number of points) you would expect to receive on every trial.</br> Click start to begin.</p>","0","html-button-response","72","1736984","0.0-12.0","female","18","Australia","67190","24779","imgNWTK/KeepItSecret.jpg","imgNWTK/FindOutNow.jpg","imgNWTK/KeepItSecret.jpg","imgNWTK/FindOutNow.jpg","info","sub","3.25","","","","","","","","","","","","","",""
"8395.200000017881","","","survey-number","73","1745385","0.0-13.0-0.0","female","18","Australia","67190","24779","imgNWTK/KeepItSecret.jpg","imgNWTK/FindOutNow.jpg","imgNWTK/KeepItSecret.jpg","imgNWTK/FindOutNow.jpg","info","sub","3.25","{""undefined"":""80""}","","","","","","","","","","","","imgNWTK/FindOutNow.jpg",""
"6878.9000000059605","","","survey-number","74","1752268","0.0-13.0-0.1","female","18","Australia","67190","24779","imgNWTK/KeepItSecret.jpg","imgNWTK/FindOutNow.jpg","imgNWTK/KeepItSecret.jpg","imgNWTK/FindOutNow.jpg","info","sub","3.25","{""undefined"":""90""}","","","","","","","","","","","","imgNWTK/FindOutNow.jpg",""
"1828.9000000059605","","","survey-number","75","1754101","0.0-13.0-0.2","female","18","Australia","67190","24779","imgNWTK/KeepItSecret.jpg","imgNWTK/FindOutNow.jpg","imgNWTK/KeepItSecret.jpg","imgNWTK/FindOutNow.jpg","info","sub","3.25","{""undefined"":""70""}","","","","","","","","","","","","imgNWTK/FindOutNow.jpg",""
"1662.5999999940395","","","survey-number","76","1755768","0.0-13.0-0.3","female","18","Australia","67190","24779","imgNWTK/KeepItSecret.jpg","imgNWTK/FindOutNow.jpg","imgNWTK/KeepItSecret.jpg","imgNWTK/FindOutNow.jpg","info","sub","3.25","{""undefined"":""60""}","","","","","","","","","","","","imgNWTK/FindOutNow.jpg",""
"1245.5999999940395","","","survey-number","77","1757018","0.0-13.0-0.4","female","18","Australia","67190","24779","imgNWTK/KeepItSecret.jpg","imgNWTK/FindOutNow.jpg","imgNWTK/KeepItSecret.jpg","imgNWTK/FindOutNow.jpg","info","sub","3.25","{""undefined"":""70""}","","","","","","","","","","","","imgNWTK/FindOutNow.jpg",""
"1596.0999999940395","","","survey-number","78","1758618","0.0-13.0-0.5","female","18","Australia","67190","24779","imgNWTK/KeepItSecret.jpg","imgNWTK/FindOutNow.jpg","imgNWTK/KeepItSecret.jpg","imgNWTK/FindOutNow.jpg","info","sub","3.25","{""undefined"":""70""}","","","","","","","","","","","","imgNWTK/FindOutNow.jpg",""
"1647.0999999940395","","","survey-number","79","1760269","0.0-13.0-0.6","female","18","Australia","67190","24779","imgNWTK/KeepItSecret.jpg","imgNWTK/FindOutNow.jpg","imgNWTK/KeepItSecret.jpg","imgNWTK/FindOutNow.jpg","info","sub","3.25","{""undefined"":""70""}","","","","","","","","","","","","imgNWTK/FindOutNow.jpg",""
"1328.7000000178814","","","survey-number","80","1761602","0.0-13.0-0.7","female","18","Australia","67190","24779","imgNWTK/KeepItSecret.jpg","imgNWTK/FindOutNow.jpg","imgNWTK/KeepItSecret.jpg","imgNWTK/FindOutNow.jpg","info","sub","3.25","{""undefined"":""80""}","","","","","","","","","","","","imgNWTK/FindOutNow.jpg",""
"1178.199999988079","","","survey-number","81","1762785","0.0-13.0-0.8","female","18","Australia","67190","24779","imgNWTK/KeepItSecret.jpg","imgNWTK/FindOutNow.jpg","imgNWTK/KeepItSecret.jpg","imgNWTK/FindOutNow.jpg","info","sub","3.25","{""undefined"":""60""}","","","","","","","","","","","","imgNWTK/FindOutNow.jpg",""
"5312.799999982119","","","survey-number","82","1768101","0.0-13.0-0.9","female","18","Australia","67190","24779","imgNWTK/KeepItSecret.jpg","imgNWTK/FindOutNow.jpg","imgNWTK/KeepItSecret.jpg","imgNWTK/FindOutNow.jpg","info","sub","3.25","{""undefined"":""70""}","","","","","","","","","","","","imgNWTK/FindOutNow.jpg",""
"863","<p><b>Imagine that you clicked on the below button for another 10 trials (this includes <i> both WIN and NO-WIN trials</i>).</p> <img src= 'imgNWTK/KeepItSecret.jpg'></img></br></br> <p><b>Please type the reward (number of points) you would expect to receive on every trial.</br> Click start to begin.</p>","0","html-button-response","83","1768967","0.0-14.0","female","18","Australia","67190","24779","imgNWTK/KeepItSecret.jpg","imgNWTK/FindOutNow.jpg","imgNWTK/KeepItSecret.jpg","imgNWTK/FindOutNow.jpg","info","sub","3.25","","","","","","","","","","","","","",""
"1902.5","","","survey-number","84","1770874","0.0-15.0-0.0","female","18","Australia","67190","24779","imgNWTK/KeepItSecret.jpg","imgNWTK/FindOutNow.jpg","imgNWTK/KeepItSecret.jpg","imgNWTK/FindOutNow.jpg","info","sub","3.25","{""undefined"":""124""}","","","","","","","","","","","","imgNWTK/KeepItSecret.jpg",""
"2095.2000000178814","","","survey-number","85","1772974","0.0-15.0-0.1","female","18","Australia","67190","24779","imgNWTK/KeepItSecret.jpg","imgNWTK/FindOutNow.jpg","imgNWTK/KeepItSecret.jpg","imgNWTK/FindOutNow.jpg","info","sub","3.25","{""undefined"":""123""}","","","","","","","","","","","","imgNWTK/KeepItSecret.jpg",""
"1112.2000000178814","","","survey-number","86","1774091","0.0-15.0-0.2","female","18","Australia","67190","24779","imgNWTK/KeepItSecret.jpg","imgNWTK/FindOutNow.jpg","imgNWTK/KeepItSecret.jpg","imgNWTK/FindOutNow.jpg","info","sub","3.25","{""undefined"":""10""}","","","","","","","","","","","","imgNWTK/KeepItSecret.jpg",""
"1577.2000000178814","","","survey-number","87","1775673","0.0-15.0-0.3","female","18","Australia","67190","24779","imgNWTK/KeepItSecret.jpg","imgNWTK/FindOutNow.jpg","imgNWTK/KeepItSecret.jpg","imgNWTK/FindOutNow.jpg","info","sub","3.25","{""undefined"":""120""}","","","","","","","","","","","","imgNWTK/KeepItSecret.jpg",""
"1324.7000000178814","","","survey-number","88","1777003","0.0-15.0-0.4","female","18","Australia","67190","24779","imgNWTK/KeepItSecret.jpg","imgNWTK/FindOutNow.jpg","imgNWTK/KeepItSecret.jpg","imgNWTK/FindOutNow.jpg","info","sub","3.25","{""undefined"":""120""}","","","","","","","","","","","","imgNWTK/KeepItSecret.jpg",""
"849","","","survey-number","89","1777858","0.0-15.0-0.5","female","18","Australia","67190","24779","imgNWTK/KeepItSecret.jpg","imgNWTK/FindOutNow.jpg","imgNWTK/KeepItSecret.jpg","imgNWTK/FindOutNow.jpg","info","sub","3.25","{""undefined"":""110""}","","","","","","","","","","","","imgNWTK/KeepItSecret.jpg",""
"1021.5999999940395","","","survey-number","90","1778884","0.0-15.0-0.6","female","18","Australia","67190","24779","imgNWTK/KeepItSecret.jpg","imgNWTK/FindOutNow.jpg","imgNWTK/KeepItSecret.jpg","imgNWTK/FindOutNow.jpg","info","sub","3.25","{""undefined"":""110""}","","","","","","","","","","","","imgNWTK/KeepItSecret.jpg",""
"833.6999999880791","","","survey-number","91","1779722","0.0-15.0-0.7","female","18","Australia","67190","24779","imgNWTK/KeepItSecret.jpg","imgNWTK/FindOutNow.jpg","imgNWTK/KeepItSecret.jpg","imgNWTK/FindOutNow.jpg","info","sub","3.25","{""undefined"":""110""}","","","","","","","","","","","","imgNWTK/KeepItSecret.jpg",""
"1429.3999999761581","","","survey-number","92","1781156","0.0-15.0-0.8","female","18","Australia","67190","24779","imgNWTK/KeepItSecret.jpg","imgNWTK/FindOutNow.jpg","imgNWTK/KeepItSecret.jpg","imgNWTK/FindOutNow.jpg","info","sub","3.25","{""undefined"":""100""}","","","","","","","","","","","","imgNWTK/KeepItSecret.jpg",""
"1782.5999999940395","","","survey-number","93","1782943","0.0-15.0-0.9","female","18","Australia","67190","24779","imgNWTK/KeepItSecret.jpg","imgNWTK/FindOutNow.jpg","imgNWTK/KeepItSecret.jpg","imgNWTK/FindOutNow.jpg","info","sub","3.25","{""undefined"":""110""}","","","","","","","","","","","","imgNWTK/KeepItSecret.jpg",""
"15310.700000017881","","","survey-number","94","1798264","0.0-16.0","female","18","Australia","67190","24779","imgNWTK/KeepItSecret.jpg","imgNWTK/FindOutNow.jpg","imgNWTK/KeepItSecret.jpg","imgNWTK/FindOutNow.jpg","info","sub","3.25","{""undefined"":""120""}","","","","","","","","","","","","","imgNWTK/KeepItSecret.jpg"
"4249.5999999940395","","","survey-number","95","1802520","0.0-17.0","female","18","Australia","67190","24779","imgNWTK/KeepItSecret.jpg","imgNWTK/FindOutNow.jpg","imgNWTK/KeepItSecret.jpg","imgNWTK/FindOutNow.jpg","info","sub","3.25","{""undefined"":""70""}","","","","","","","","","","","","","imgNWTK/FindOutNow.jpg"
"16294","<p style=""text-align:left;"">Great! We are almost at the end of the study... (Please do not close the browser window yet.)</p><p> Your final points balance is 3254, which equals to a bonus payment of $3.25. Please collect your payment from Mathews Building Room 721 (Mon-Fri 9am-5pm); please email amy.x.li@unsw.edu.au at least 24 hours prior to collection so that this is ready for you.</p><p style=""text-align:left;"">To view the debriefing form, please click <a href=""./imgNWTK/debrief_3205.pdf"" target=""_blank"">here</a> to download a copy.</p><p style=""text-align:left;"">Then, <b>please click the below button</b> to confirm that you have received your debrief and to complete the study. Upon clicking ""Finish!"", your SONA credit will be automatically assigned.</p>","0","html-button-response","96","1818818","0.0-18.0","female","18","Australia","67190","24779","imgNWTK/KeepItSecret.jpg","imgNWTK/FindOutNow.jpg","imgNWTK/KeepItSecret.jpg","imgNWTK/FindOutNow.jpg","info","sub","3.25","","","","","","","","","","","","","",""
