"rt","stimulus","button_pressed","trial_type","trial_index","time_elapsed","internal_node_id","gender","age","language","PID","sona_id","subStim","optStim","stim1","stim2","infoCond","optimCond","bonus","responses","banditTrial","choice","cue","feedback","estimateData","leftOption","rightOption","choiceName","leftInput","rightInput","key_press","postQ","singleEst"
"12611","<p>Thank you for signing up to participate in SONA Study 465! <br> During this study, please focus on the experiment and refrain from activities such as:</p>- <b>Switching to other tabs on your browser (this will be monitored via the experiment)</br> - Using your mobile phone/cell phone</br> - Communicating with others</br></br></b><p>This way, you are helping to provide data that is useful for psychological research. We thank you for your cooperation!</p>","0","html-button-response","0","12613","0.0-0.0","male","18","Australia","22952","25692","imgNWTK/square.png","imgNWTK/triangle.png","imgNWTK/square.png","imgNWTK/triangle.png","noninfo","sub","3.06","","","","","","","","","","","","","",""
"1165","<p>Welcome to the experiment!</p><p>You will now read some instructions about the task. Press the 'Next' button to continue. </p>","0","html-button-response","1","13780","0.0-1.0","male","18","Australia","22952","25692","imgNWTK/square.png","imgNWTK/triangle.png","imgNWTK/square.png","imgNWTK/triangle.png","noninfo","sub","3.06","","","","","","","","","","","","","",""
"10358","<p> On each trial throughout the experiment you will choose between two options, </br>a <b>Black Square </b> and <b> Black Triangle </b>, as seen below.</p><div><div style= 'float: left; width: 300px; margin: 10px 10px;'><img src= 'imgNWTK/square.png'></img></div><div style= 'float: right; width: 300px; margin: 10px 10px;'><img src= 'imgNWTK/triangle.png'></img></div></div><br/><br/><br/><br/><br/><br/><br/><br/><br/><br/><br/><p>Each option results in winning points or receiving 0 points.</br>There is a 50% chance of either winning or receiving 0 points.</p><p>You won't receive the outcome until after a <b> 20 second delay</b>.</p>","0","html-button-response","2","24140","0.0-2.0-0.0","male","18","Australia","22952","25692","imgNWTK/square.png","imgNWTK/triangle.png","imgNWTK/square.png","imgNWTK/triangle.png","noninfo","sub","3.06","","","","","","","","","","","","","",""
"8399","<img src= 'imgNWTK/NonInfoDiagram.png'></img><p>As seen above, whether you choose the square or triangle, you will receive a coloured circle after the choice. </p> <p>This circle will be on screen for 20 seconds until you win points or receive 0 points.</p><p>The coloured circle depends on which option you chose. </br> In the above example, choosing a triangle leads to a green circle and choosing the square leads to a red circle.</p>Please note: the circles in your task will be different to the above colours.</br></br>","0","html-button-response","3","32540","0.0-2.0-1.0","male","18","Australia","22952","25692","imgNWTK/square.png","imgNWTK/triangle.png","imgNWTK/square.png","imgNWTK/triangle.png","noninfo","sub","3.06","","","","","","","","","","","","","",""
"5518","<img src= 'cues/winTrials_noInfo.png' width = '1200'></img><p>To reiterate, 50% of the outcomes of each option will be WIN TRIALS, and the other 50% will be NO-WIN TRIALS.","0","html-button-response","4","38061","0.0-2.0-2.0","male","18","Australia","22952","25692","imgNWTK/square.png","imgNWTK/triangle.png","imgNWTK/square.png","imgNWTK/triangle.png","noninfo","sub","3.06","","","","","","","","","","","","","",""
"13853","<p> There will be <b>four blocks</b> in the experiment.</br>You will be given a short 15 second break between each block.</p><p><b>The points and the options will remain the same between the blocks.</b></p>The blocks are there just to give you a small break.</br></br></br></br><p>The points you earn in the task are also equal to <b> actual money</b>.</br> <b>1000 points is equal to $1 AUD</b></p><p>This is the rate you will be paid at the experiment's end.","0","html-button-response","5","51915","0.0-2.0-3.0","male","18","Australia","22952","25692","imgNWTK/square.png","imgNWTK/triangle.png","imgNWTK/square.png","imgNWTK/triangle.png","noninfo","sub","3.06","","","","","","","","","","","","","",""
"15908","","","survey-multi-choice","6","67828","0.0-2.0-4.0","male","18","Australia","22952","25692","imgNWTK/square.png","imgNWTK/triangle.png","imgNWTK/square.png","imgNWTK/triangle.png","noninfo","sub","3.06","{""Q0"":""10 Seconds"",""Q1"":""True"",""Q2"":""Equally""}","","","","","","","","","","","","",""
"1716","Unfortunately, at least one of your answers was incorrect.<p> ","0","html-button-response","7","69549","0.0-2.0-5.0-0.0","male","18","Australia","22952","25692","imgNWTK/square.png","imgNWTK/triangle.png","imgNWTK/square.png","imgNWTK/triangle.png","noninfo","sub","3.06","","","","","","","","","","","","","",""
"1485","<p> On each trial throughout the experiment you will choose between two options, </br>a <b>Black Square </b> and <b> Black Triangle </b>, as seen below.</p><div><div style= 'float: left; width: 300px; margin: 10px 10px;'><img src= 'imgNWTK/square.png'></img></div><div style= 'float: right; width: 300px; margin: 10px 10px;'><img src= 'imgNWTK/triangle.png'></img></div></div><br/><br/><br/><br/><br/><br/><br/><br/><br/><br/><br/><p>Each option results in winning points or receiving 0 points.</br>There is a 50% chance of either winning or receiving 0 points.</p><p>You won't receive the outcome until after a <b> 20 second delay</b>.</p>","0","html-button-response","8","71035","0.0-2.1-0.1","male","18","Australia","22952","25692","imgNWTK/square.png","imgNWTK/triangle.png","imgNWTK/square.png","imgNWTK/triangle.png","noninfo","sub","3.06","","","","","","","","","","","","","",""
"1503","<img src= 'imgNWTK/NonInfoDiagram.png'></img><p>As seen above, whether you choose the square or triangle, you will receive a coloured circle after the choice. </p> <p>This circle will be on screen for 20 seconds until you win points or receive 0 points.</p><p>The coloured circle depends on which option you chose. </br> In the above example, choosing a triangle leads to a green circle and choosing the square leads to a red circle.</p>Please note: the circles in your task will be different to the above colours.</br></br>","0","html-button-response","9","72540","0.0-2.1-1.1","male","18","Australia","22952","25692","imgNWTK/square.png","imgNWTK/triangle.png","imgNWTK/square.png","imgNWTK/triangle.png","noninfo","sub","3.06","","","","","","","","","","","","","",""
"614","<img src= 'cues/winTrials_noInfo.png' width = '1200'></img><p>To reiterate, 50% of the outcomes of each option will be WIN TRIALS, and the other 50% will be NO-WIN TRIALS.","0","html-button-response","10","73155","0.0-2.1-2.1","male","18","Australia","22952","25692","imgNWTK/square.png","imgNWTK/triangle.png","imgNWTK/square.png","imgNWTK/triangle.png","noninfo","sub","3.06","","","","","","","","","","","","","",""
"584","<p> There will be <b>four blocks</b> in the experiment.</br>You will be given a short 15 second break between each block.</p><p><b>The points and the options will remain the same between the blocks.</b></p>The blocks are there just to give you a small break.</br></br></br></br><p>The points you earn in the task are also equal to <b> actual money</b>.</br> <b>1000 points is equal to $1 AUD</b></p><p>This is the rate you will be paid at the experiment's end.","0","html-button-response","11","73739","0.0-2.1-3.1","male","18","Australia","22952","25692","imgNWTK/square.png","imgNWTK/triangle.png","imgNWTK/square.png","imgNWTK/triangle.png","noninfo","sub","3.06","","","","","","","","","","","","","",""
"3454","","","survey-multi-choice","12","77195","0.0-2.1-4.1","male","18","Australia","22952","25692","imgNWTK/square.png","imgNWTK/triangle.png","imgNWTK/square.png","imgNWTK/triangle.png","noninfo","sub","3.06","{""Q0"":""20 Seconds"",""Q1"":""True"",""Q2"":""Equally""}","","","","","","","","","","","","",""
"2732","<p> Well done, all your answers were correct! <br> The experiment is about to start now. <br/> Click start to continue, or email your researcher <b>(amy.x.li@unsw.edu.au)</b> if you have any questions before starting.","0","html-button-response","13","79932","0.0-3.0","male","18","Australia","22952","25692","imgNWTK/square.png","imgNWTK/triangle.png","imgNWTK/square.png","imgNWTK/triangle.png","noninfo","sub","3.06","","","","","","","","","","","","","",""
"1028","","","bandit-task-exp6","14","103044","0.0-4.0-0.0","male","18","Australia","22952","25692","imgNWTK/square.png","imgNWTK/triangle.png","imgNWTK/square.png","imgNWTK/triangle.png","noninfo","sub","3.06","","1","1","1","110","null","imgNWTK/triangle.png","imgNWTK/square.png","imgNWTK/square.png","NaN","NaN","","",""
"1669","","","bandit-task-exp6","15","126940","0.0-4.0-0.1","male","18","Australia","22952","25692","imgNWTK/square.png","imgNWTK/triangle.png","imgNWTK/square.png","imgNWTK/triangle.png","noninfo","sub","3.06","","2","1","1","122","null","imgNWTK/square.png","imgNWTK/triangle.png","imgNWTK/square.png","NaN","NaN","","",""
"982","","","bandit-task-exp6","16","155571","0.0-4.0-0.2","male","18","Australia","22952","25692","imgNWTK/square.png","imgNWTK/triangle.png","imgNWTK/square.png","imgNWTK/triangle.png","noninfo","sub","3.06","","3","2","2","80","null","imgNWTK/square.png","imgNWTK/triangle.png","imgNWTK/triangle.png","NaN","NaN","","",""
"750","","","bandit-task-exp6","17","178875","0.0-4.0-0.3","male","18","Australia","22952","25692","imgNWTK/square.png","imgNWTK/triangle.png","imgNWTK/square.png","imgNWTK/triangle.png","noninfo","sub","3.06","","4","1","2","0","null","imgNWTK/triangle.png","imgNWTK/square.png","imgNWTK/square.png","NaN","NaN","","",""
"470","","","bandit-task-exp6","18","204604","0.0-4.0-0.4","male","18","Australia","22952","25692","imgNWTK/square.png","imgNWTK/triangle.png","imgNWTK/square.png","imgNWTK/triangle.png","noninfo","sub","3.06","","5","1","1","130","null","imgNWTK/square.png","imgNWTK/triangle.png","imgNWTK/square.png","NaN","NaN","","",""
"781","","","bandit-task-exp6","19","227379","0.0-4.0-0.5","male","18","Australia","22952","25692","imgNWTK/square.png","imgNWTK/triangle.png","imgNWTK/square.png","imgNWTK/triangle.png","noninfo","sub","3.06","","6","1","1","121","null","imgNWTK/triangle.png","imgNWTK/square.png","imgNWTK/square.png","NaN","NaN","","",""
"1934","","","bandit-task-exp6","20","252780","0.0-4.0-0.6","male","18","Australia","22952","25692","imgNWTK/square.png","imgNWTK/triangle.png","imgNWTK/square.png","imgNWTK/triangle.png","noninfo","sub","3.06","","7","1","1","126","null","imgNWTK/triangle.png","imgNWTK/square.png","imgNWTK/square.png","NaN","NaN","","",""
"477","","","bandit-task-exp6","21","275220","0.0-4.0-0.7","male","18","Australia","22952","25692","imgNWTK/square.png","imgNWTK/triangle.png","imgNWTK/square.png","imgNWTK/triangle.png","noninfo","sub","3.06","","8","2","2","89","null","imgNWTK/square.png","imgNWTK/triangle.png","imgNWTK/triangle.png","NaN","NaN","","",""
"892","","","bandit-task-exp6","22","298316","0.0-4.0-0.8","male","18","Australia","22952","25692","imgNWTK/square.png","imgNWTK/triangle.png","imgNWTK/square.png","imgNWTK/triangle.png","noninfo","sub","3.06","","9","1","2","0","null","imgNWTK/square.png","imgNWTK/triangle.png","imgNWTK/square.png","NaN","NaN","","",""
"563","","","bandit-task-exp6","23","324163","0.0-4.0-0.9","male","18","Australia","22952","25692","imgNWTK/square.png","imgNWTK/triangle.png","imgNWTK/square.png","imgNWTK/triangle.png","noninfo","sub","3.06","","10","1","2","0","null","imgNWTK/triangle.png","imgNWTK/square.png","imgNWTK/square.png","NaN","NaN","","",""
"518","","","bandit-task-exp6","24","350196","0.0-4.0-0.10","male","18","Australia","22952","25692","imgNWTK/square.png","imgNWTK/triangle.png","imgNWTK/square.png","imgNWTK/triangle.png","noninfo","sub","3.06","","11","1","2","0","null","imgNWTK/square.png","imgNWTK/triangle.png","imgNWTK/square.png","NaN","NaN","","",""
"948","","","bandit-task-exp6","25","378267","0.0-4.0-0.11","male","18","Australia","22952","25692","imgNWTK/square.png","imgNWTK/triangle.png","imgNWTK/square.png","imgNWTK/triangle.png","noninfo","sub","3.06","","12","2","1","0","null","imgNWTK/square.png","imgNWTK/triangle.png","imgNWTK/triangle.png","NaN","NaN","","",""
"495","","","bandit-task-exp6","26","401203","0.0-4.0-0.12","male","18","Australia","22952","25692","imgNWTK/square.png","imgNWTK/triangle.png","imgNWTK/square.png","imgNWTK/triangle.png","noninfo","sub","3.06","","13","2","1","0","null","imgNWTK/triangle.png","imgNWTK/square.png","imgNWTK/triangle.png","NaN","NaN","","",""
"527","","","bandit-task-exp6","27","424131","0.0-4.0-0.13","male","18","Australia","22952","25692","imgNWTK/square.png","imgNWTK/triangle.png","imgNWTK/square.png","imgNWTK/triangle.png","noninfo","sub","3.06","","14","1","1","120","null","imgNWTK/square.png","imgNWTK/triangle.png","imgNWTK/square.png","NaN","NaN","","",""
"726","","","bandit-task-exp6","28","447116","0.0-4.0-0.14","male","18","Australia","22952","25692","imgNWTK/square.png","imgNWTK/triangle.png","imgNWTK/square.png","imgNWTK/triangle.png","noninfo","sub","3.06","","15","2","1","0","null","imgNWTK/triangle.png","imgNWTK/square.png","imgNWTK/triangle.png","NaN","NaN","","",""
"null","<p><b> Congratulations, you have finished this block. </b> </p><p>Please take a short break before moving onto the next block.</p><p>The next block will start after a 15 second break.</p><b>Remember, the point rewards are the same between blocks","","html-keyboard-response","29","462123","0.0-5.0","male","18","Australia","22952","25692","imgNWTK/square.png","imgNWTK/triangle.png","imgNWTK/square.png","imgNWTK/triangle.png","noninfo","sub","3.06","","","","","","","","","","","","null","",""
"4646","","","bandit-task-exp6","30","489523","0.0-6.0-0.0","male","18","Australia","22952","25692","imgNWTK/square.png","imgNWTK/triangle.png","imgNWTK/square.png","imgNWTK/triangle.png","noninfo","sub","3.06","","16","2","1","0","null","imgNWTK/triangle.png","imgNWTK/square.png","imgNWTK/triangle.png","NaN","NaN","","",""
"446","","","bandit-task-exp6","31","512476","0.0-6.0-0.1","male","18","Australia","22952","25692","imgNWTK/square.png","imgNWTK/triangle.png","imgNWTK/square.png","imgNWTK/triangle.png","noninfo","sub","3.06","","17","1","2","0","null","imgNWTK/square.png","imgNWTK/triangle.png","imgNWTK/square.png","NaN","NaN","","",""
"462","","","bandit-task-exp6","32","535252","0.0-6.0-0.2","male","18","Australia","22952","25692","imgNWTK/square.png","imgNWTK/triangle.png","imgNWTK/square.png","imgNWTK/triangle.png","noninfo","sub","3.06","","18","2","1","0","null","imgNWTK/square.png","imgNWTK/triangle.png","imgNWTK/triangle.png","NaN","NaN","","",""
"446","","","bandit-task-exp6","33","562587","0.0-6.0-0.3","male","18","Australia","22952","25692","imgNWTK/square.png","imgNWTK/triangle.png","imgNWTK/square.png","imgNWTK/triangle.png","noninfo","sub","3.06","","19","1","2","0","null","imgNWTK/square.png","imgNWTK/triangle.png","imgNWTK/square.png","NaN","NaN","","",""
"277","","","bandit-task-exp6","34","584891","0.0-6.0-0.4","male","18","Australia","22952","25692","imgNWTK/square.png","imgNWTK/triangle.png","imgNWTK/square.png","imgNWTK/triangle.png","noninfo","sub","3.06","","20","2","1","0","null","imgNWTK/triangle.png","imgNWTK/square.png","imgNWTK/triangle.png","NaN","NaN","","",""
"374","","","bandit-task-exp6","35","608076","0.0-6.0-0.5","male","18","Australia","22952","25692","imgNWTK/square.png","imgNWTK/triangle.png","imgNWTK/square.png","imgNWTK/triangle.png","noninfo","sub","3.06","","21","1","1","110","null","imgNWTK/square.png","imgNWTK/triangle.png","imgNWTK/square.png","NaN","NaN","","",""
"550","","","bandit-task-exp6","36","630588","0.0-6.0-0.6","male","18","Australia","22952","25692","imgNWTK/square.png","imgNWTK/triangle.png","imgNWTK/square.png","imgNWTK/triangle.png","noninfo","sub","3.06","","22","2","2","82","null","imgNWTK/triangle.png","imgNWTK/square.png","imgNWTK/triangle.png","NaN","NaN","","",""
"382","","","bandit-task-exp6","37","654372","0.0-6.0-0.7","male","18","Australia","22952","25692","imgNWTK/square.png","imgNWTK/triangle.png","imgNWTK/square.png","imgNWTK/triangle.png","noninfo","sub","3.06","","23","2","1","0","null","imgNWTK/triangle.png","imgNWTK/square.png","imgNWTK/triangle.png","NaN","NaN","","",""
"790","","","bandit-task-exp6","38","679012","0.0-6.0-0.8","male","18","Australia","22952","25692","imgNWTK/square.png","imgNWTK/triangle.png","imgNWTK/square.png","imgNWTK/triangle.png","noninfo","sub","3.06","","24","2","2","84","null","imgNWTK/triangle.png","imgNWTK/square.png","imgNWTK/triangle.png","NaN","NaN","","",""
"637","","","bandit-task-exp6","39","702516","0.0-6.0-0.9","male","18","Australia","22952","25692","imgNWTK/square.png","imgNWTK/triangle.png","imgNWTK/square.png","imgNWTK/triangle.png","noninfo","sub","3.06","","25","2","1","0","null","imgNWTK/triangle.png","imgNWTK/square.png","imgNWTK/triangle.png","NaN","NaN","","",""
"527","","","bandit-task-exp6","40","728285","0.0-6.0-0.10","male","18","Australia","22952","25692","imgNWTK/square.png","imgNWTK/triangle.png","imgNWTK/square.png","imgNWTK/triangle.png","noninfo","sub","3.06","","26","2","1","0","null","imgNWTK/triangle.png","imgNWTK/square.png","imgNWTK/triangle.png","NaN","NaN","","",""
"422","","","bandit-task-exp6","41","759284","0.0-6.0-0.11","male","18","Australia","22952","25692","imgNWTK/square.png","imgNWTK/triangle.png","imgNWTK/square.png","imgNWTK/triangle.png","noninfo","sub","3.06","","27","1","1","126","null","imgNWTK/square.png","imgNWTK/triangle.png","imgNWTK/square.png","NaN","NaN","","",""
"493","","","bandit-task-exp6","42","789036","0.0-6.0-0.12","male","18","Australia","22952","25692","imgNWTK/square.png","imgNWTK/triangle.png","imgNWTK/square.png","imgNWTK/triangle.png","noninfo","sub","3.06","","28","2","2","72","null","imgNWTK/triangle.png","imgNWTK/square.png","imgNWTK/triangle.png","NaN","NaN","","",""
"468","","","bandit-task-exp6","43","822459","0.0-6.0-0.13","male","18","Australia","22952","25692","imgNWTK/square.png","imgNWTK/triangle.png","imgNWTK/square.png","imgNWTK/triangle.png","noninfo","sub","3.06","","29","2","2","70","null","imgNWTK/triangle.png","imgNWTK/square.png","imgNWTK/triangle.png","NaN","NaN","","",""
"413","","","bandit-task-exp6","44","853091","0.0-6.0-0.14","male","18","Australia","22952","25692","imgNWTK/square.png","imgNWTK/triangle.png","imgNWTK/square.png","imgNWTK/triangle.png","noninfo","sub","3.06","","30","2","1","0","null","imgNWTK/triangle.png","imgNWTK/square.png","imgNWTK/triangle.png","NaN","NaN","","",""
"null","<p><b> Congratulations, you have finished this block. </b> </p><p>Please take a short break before moving onto the next block.</p><p>The next block will start after a 15 second break.</p><b>Remember, the point rewards are the same between blocks","","html-keyboard-response","45","868103","0.0-7.0","male","18","Australia","22952","25692","imgNWTK/square.png","imgNWTK/triangle.png","imgNWTK/square.png","imgNWTK/triangle.png","noninfo","sub","3.06","","","","","","","","","","","","null","",""
"12905","","","bandit-task-exp6","46","904132","0.0-8.0-0.0","male","18","Australia","22952","25692","imgNWTK/square.png","imgNWTK/triangle.png","imgNWTK/square.png","imgNWTK/triangle.png","noninfo","sub","3.06","","31","2","1","0","null","imgNWTK/triangle.png","imgNWTK/square.png","imgNWTK/triangle.png","NaN","NaN","","",""
"1167","","","bandit-task-exp6","47","933028","0.0-8.0-0.1","male","18","Australia","22952","25692","imgNWTK/square.png","imgNWTK/triangle.png","imgNWTK/square.png","imgNWTK/triangle.png","noninfo","sub","3.06","","32","2","1","0","null","imgNWTK/triangle.png","imgNWTK/square.png","imgNWTK/triangle.png","NaN","NaN","","",""
"4799","","","bandit-task-exp6","48","968003","0.0-8.0-0.2","male","18","Australia","22952","25692","imgNWTK/square.png","imgNWTK/triangle.png","imgNWTK/square.png","imgNWTK/triangle.png","noninfo","sub","3.06","","33","1","1","117","null","imgNWTK/square.png","imgNWTK/triangle.png","imgNWTK/square.png","NaN","NaN","","",""
"494","","","bandit-task-exp6","49","997332","0.0-8.0-0.3","male","18","Australia","22952","25692","imgNWTK/square.png","imgNWTK/triangle.png","imgNWTK/square.png","imgNWTK/triangle.png","noninfo","sub","3.06","","34","1","1","119","null","imgNWTK/square.png","imgNWTK/triangle.png","imgNWTK/square.png","NaN","NaN","","",""
"558","","","bandit-task-exp6","50","1028228","0.0-8.0-0.4","male","18","Australia","22952","25692","imgNWTK/square.png","imgNWTK/triangle.png","imgNWTK/square.png","imgNWTK/triangle.png","noninfo","sub","3.06","","35","2","2","73","null","imgNWTK/triangle.png","imgNWTK/square.png","imgNWTK/triangle.png","NaN","NaN","","",""
"11789","","","bandit-task-exp6","51","1075387","0.0-8.0-0.5","male","18","Australia","22952","25692","imgNWTK/square.png","imgNWTK/triangle.png","imgNWTK/square.png","imgNWTK/triangle.png","noninfo","sub","3.06","","36","1","1","120","null","imgNWTK/square.png","imgNWTK/triangle.png","imgNWTK/square.png","NaN","NaN","","",""
"5286","","","bandit-task-exp6","52","1103348","0.0-8.0-0.6","male","18","Australia","22952","25692","imgNWTK/square.png","imgNWTK/triangle.png","imgNWTK/square.png","imgNWTK/triangle.png","noninfo","sub","3.06","","37","2","2","86","null","imgNWTK/triangle.png","imgNWTK/square.png","imgNWTK/triangle.png","NaN","NaN","","",""
"383","","","bandit-task-exp6","53","1136316","0.0-8.0-0.7","male","18","Australia","22952","25692","imgNWTK/square.png","imgNWTK/triangle.png","imgNWTK/square.png","imgNWTK/triangle.png","noninfo","sub","3.06","","38","2","1","0","null","imgNWTK/triangle.png","imgNWTK/square.png","imgNWTK/triangle.png","NaN","NaN","","",""
"719","","","bandit-task-exp6","54","1161285","0.0-8.0-0.8","male","18","Australia","22952","25692","imgNWTK/square.png","imgNWTK/triangle.png","imgNWTK/square.png","imgNWTK/triangle.png","noninfo","sub","3.06","","39","1","1","127","null","imgNWTK/square.png","imgNWTK/triangle.png","imgNWTK/square.png","NaN","NaN","","",""
"7819","","","bandit-task-exp6","55","1193636","0.0-8.0-0.9","male","18","Australia","22952","25692","imgNWTK/square.png","imgNWTK/triangle.png","imgNWTK/square.png","imgNWTK/triangle.png","noninfo","sub","3.06","","40","2","2","75","null","imgNWTK/square.png","imgNWTK/triangle.png","imgNWTK/triangle.png","NaN","NaN","","",""
"12901","","","bandit-task-exp6","56","1235100","0.0-8.0-0.10","male","18","Australia","22952","25692","imgNWTK/square.png","imgNWTK/triangle.png","imgNWTK/square.png","imgNWTK/triangle.png","noninfo","sub","3.06","","41","1","2","0","null","imgNWTK/triangle.png","imgNWTK/square.png","imgNWTK/square.png","NaN","NaN","","",""
"11100","","","bandit-task-exp6","57","1273908","0.0-8.0-0.11","male","18","Australia","22952","25692","imgNWTK/square.png","imgNWTK/triangle.png","imgNWTK/square.png","imgNWTK/triangle.png","noninfo","sub","3.06","","42","1","1","124","null","imgNWTK/triangle.png","imgNWTK/square.png","imgNWTK/square.png","NaN","NaN","","",""
"566","","","bandit-task-exp6","58","1303236","0.0-8.0-0.12","male","18","Australia","22952","25692","imgNWTK/square.png","imgNWTK/triangle.png","imgNWTK/square.png","imgNWTK/triangle.png","noninfo","sub","3.06","","43","1","2","0","null","imgNWTK/square.png","imgNWTK/triangle.png","imgNWTK/square.png","NaN","NaN","","",""
"822","","","bandit-task-exp6","59","1327828","0.0-8.0-0.13","male","18","Australia","22952","25692","imgNWTK/square.png","imgNWTK/triangle.png","imgNWTK/square.png","imgNWTK/triangle.png","noninfo","sub","3.06","","44","2","1","0","null","imgNWTK/triangle.png","imgNWTK/square.png","imgNWTK/triangle.png","NaN","NaN","","",""
"462","","","bandit-task-exp6","60","1356227","0.0-8.0-0.14","male","18","Australia","22952","25692","imgNWTK/square.png","imgNWTK/triangle.png","imgNWTK/square.png","imgNWTK/triangle.png","noninfo","sub","3.06","","45","2","2","75","null","imgNWTK/triangle.png","imgNWTK/square.png","imgNWTK/triangle.png","NaN","NaN","","",""
"null","<p><b> Congratulations, you have finished this block. </b> </p><p>Please take a short break before moving onto the next block.</p><p>The next block will start after a 15 second break.</p><b>Remember, the point rewards are the same between blocks","","html-keyboard-response","61","1371230","0.0-9.0","male","18","Australia","22952","25692","imgNWTK/square.png","imgNWTK/triangle.png","imgNWTK/square.png","imgNWTK/triangle.png","noninfo","sub","3.06","","","","","","","","","","","","null","",""
"20143","","","bandit-task-exp6","62","1441915","0.0-10.0-0.0","male","18","Australia","22952","25692","imgNWTK/square.png","imgNWTK/triangle.png","imgNWTK/square.png","imgNWTK/triangle.png","noninfo","sub","3.06","","46","1","2","0","null","imgNWTK/square.png","imgNWTK/triangle.png","imgNWTK/square.png","112","88","","",""
"4525","","","bandit-task-exp6","63","1470588","0.0-10.0-0.1","male","18","Australia","22952","25692","imgNWTK/square.png","imgNWTK/triangle.png","imgNWTK/square.png","imgNWTK/triangle.png","noninfo","sub","3.06","","47","2","2","70","null","imgNWTK/square.png","imgNWTK/triangle.png","imgNWTK/triangle.png","0","112","","",""
"4484","","","bandit-task-exp6","64","1502957","0.0-10.0-0.2","male","18","Australia","22952","25692","imgNWTK/square.png","imgNWTK/triangle.png","imgNWTK/square.png","imgNWTK/triangle.png","noninfo","sub","3.06","","48","1","2","0","null","imgNWTK/triangle.png","imgNWTK/square.png","imgNWTK/square.png","0","0","","",""
"45500","","","bandit-task-exp6","65","1571548","0.0-10.0-0.3","male","18","Australia","22952","25692","imgNWTK/square.png","imgNWTK/triangle.png","imgNWTK/square.png","imgNWTK/triangle.png","noninfo","sub","3.06","","49","1","2","0","null","imgNWTK/triangle.png","imgNWTK/square.png","imgNWTK/square.png","0","0","","",""
"4237","","","bandit-task-exp6","66","1598925","0.0-10.0-0.4","male","18","Australia","22952","25692","imgNWTK/square.png","imgNWTK/triangle.png","imgNWTK/square.png","imgNWTK/triangle.png","noninfo","sub","3.06","","50","2","2","86","null","imgNWTK/triangle.png","imgNWTK/square.png","imgNWTK/triangle.png","112","0","","",""
"5162","","","bandit-task-exp6","67","1641875","0.0-10.0-0.5","male","18","Australia","22952","25692","imgNWTK/square.png","imgNWTK/triangle.png","imgNWTK/square.png","imgNWTK/triangle.png","noninfo","sub","3.06","","51","1","2","0","null","imgNWTK/square.png","imgNWTK/triangle.png","imgNWTK/square.png","88","0","","",""
"3693","","","bandit-task-exp6","68","1668996","0.0-10.0-0.6","male","18","Australia","22952","25692","imgNWTK/square.png","imgNWTK/triangle.png","imgNWTK/square.png","imgNWTK/triangle.png","noninfo","sub","3.06","","52","2","1","0","null","imgNWTK/triangle.png","imgNWTK/square.png","imgNWTK/triangle.png","88","0","","",""
"4652","","","bandit-task-exp6","69","1726500","0.0-10.0-0.7","male","18","Australia","22952","25692","imgNWTK/square.png","imgNWTK/triangle.png","imgNWTK/square.png","imgNWTK/triangle.png","noninfo","sub","3.06","","53","1","1","116","null","imgNWTK/square.png","imgNWTK/triangle.png","imgNWTK/square.png","88","0","","",""
"3486","","","bandit-task-exp6","70","1756076","0.0-10.0-0.8","male","18","Australia","22952","25692","imgNWTK/square.png","imgNWTK/triangle.png","imgNWTK/square.png","imgNWTK/triangle.png","noninfo","sub","3.06","","54","2","2","85","null","imgNWTK/triangle.png","imgNWTK/square.png","imgNWTK/triangle.png","0","0","","",""
"3165","","","bandit-task-exp6","71","1796844","0.0-10.0-0.9","male","18","Australia","22952","25692","imgNWTK/square.png","imgNWTK/triangle.png","imgNWTK/square.png","imgNWTK/triangle.png","noninfo","sub","3.06","","55","2","1","0","null","imgNWTK/triangle.png","imgNWTK/square.png","imgNWTK/triangle.png","00","00","","",""
"3524","","","bandit-task-exp6","72","1822651","0.0-10.0-0.10","male","18","Australia","22952","25692","imgNWTK/square.png","imgNWTK/triangle.png","imgNWTK/square.png","imgNWTK/triangle.png","noninfo","sub","3.06","","56","2","2","85","null","imgNWTK/triangle.png","imgNWTK/square.png","imgNWTK/triangle.png","0","0","","",""
"3941","","","bandit-task-exp6","73","1860668","0.0-10.0-0.11","male","18","Australia","22952","25692","imgNWTK/square.png","imgNWTK/triangle.png","imgNWTK/square.png","imgNWTK/triangle.png","noninfo","sub","3.06","","57","1","1","115","null","imgNWTK/square.png","imgNWTK/triangle.png","imgNWTK/square.png","0","0","","",""
"2804","","","bandit-task-exp6","74","1888268","0.0-10.0-0.12","male","18","Australia","22952","25692","imgNWTK/square.png","imgNWTK/triangle.png","imgNWTK/square.png","imgNWTK/triangle.png","noninfo","sub","3.06","","58","2","2","71","null","imgNWTK/triangle.png","imgNWTK/square.png","imgNWTK/triangle.png","0","0","","",""
"4213","","","bandit-task-exp6","75","1915933","0.0-10.0-0.13","male","18","Australia","22952","25692","imgNWTK/square.png","imgNWTK/triangle.png","imgNWTK/square.png","imgNWTK/triangle.png","noninfo","sub","3.06","","59","1","2","0","null","imgNWTK/square.png","imgNWTK/triangle.png","imgNWTK/square.png","0","0","","",""
"3212","","","bandit-task-exp6","76","1947276","0.0-10.0-0.14","male","18","Australia","22952","25692","imgNWTK/square.png","imgNWTK/triangle.png","imgNWTK/square.png","imgNWTK/triangle.png","noninfo","sub","3.06","","60","2","2","72","null","imgNWTK/triangle.png","imgNWTK/square.png","imgNWTK/triangle.png","0","0","","",""
"2550","<p> Congratulations, you have finished the main part of the experiment. </p><p>Before you finish, we have a few short questions about the options and outcomes you saw in the task.</p>","0","html-button-response","77","1949828","0.0-11.0","male","18","Australia","22952","25692","imgNWTK/square.png","imgNWTK/triangle.png","imgNWTK/square.png","imgNWTK/triangle.png","noninfo","sub","3.06","","","","","","","","","","","","","",""
"9390","<p><b>Now, imagine that you clicked on the below button for another 10 trials (this includes <i> BOTH WIN and NO-WIN trials</i>).</p> <img src= 'imgNWTK/triangle.png'></img></br></br> <p><b>Please type the reward (number of points) you would expect to receive on every trial.</br> Click start to begin.</p>","0","html-button-response","78","1959220","0.0-12.0","male","18","Australia","22952","25692","imgNWTK/square.png","imgNWTK/triangle.png","imgNWTK/square.png","imgNWTK/triangle.png","noninfo","sub","3.06","","","","","","","","","","","","","",""
"5724.5","","","survey-number","79","1964948","0.0-13.0-0.0","male","18","Australia","22952","25692","imgNWTK/square.png","imgNWTK/triangle.png","imgNWTK/square.png","imgNWTK/triangle.png","noninfo","sub","3.06","{""undefined"":""88""}","","","","","","","","","","","","imgNWTK/triangle.png",""
"2526","","","survey-number","80","1967477","0.0-13.0-0.1","male","18","Australia","22952","25692","imgNWTK/square.png","imgNWTK/triangle.png","imgNWTK/square.png","imgNWTK/triangle.png","noninfo","sub","3.06","{""undefined"":""110""}","","","","","","","","","","","","imgNWTK/triangle.png",""
"1268.9000000059605","","","survey-number","81","1968748","0.0-13.0-0.2","male","18","Australia","22952","25692","imgNWTK/square.png","imgNWTK/triangle.png","imgNWTK/square.png","imgNWTK/triangle.png","noninfo","sub","3.06","{""undefined"":""0""}","","","","","","","","","","","","imgNWTK/triangle.png",""
"894.6000000089407","","","survey-number","82","1969645","0.0-13.0-0.3","male","18","Australia","22952","25692","imgNWTK/square.png","imgNWTK/triangle.png","imgNWTK/square.png","imgNWTK/triangle.png","noninfo","sub","3.06","{""undefined"":""0""}","","","","","","","","","","","","imgNWTK/triangle.png",""
"587.6000000089407","","","survey-number","83","1970236","0.0-13.0-0.4","male","18","Australia","22952","25692","imgNWTK/square.png","imgNWTK/triangle.png","imgNWTK/square.png","imgNWTK/triangle.png","noninfo","sub","3.06","{""undefined"":""0""}","","","","","","","","","","","","imgNWTK/triangle.png",""
"1108.9000000059605","","","survey-number","84","1971349","0.0-13.0-0.5","male","18","Australia","22952","25692","imgNWTK/square.png","imgNWTK/triangle.png","imgNWTK/square.png","imgNWTK/triangle.png","noninfo","sub","3.06","{""undefined"":""0""}","","","","","","","","","","","","imgNWTK/triangle.png",""
"2156.5999999940395","","","survey-number","85","1973509","0.0-13.0-0.6","male","18","Australia","22952","25692","imgNWTK/square.png","imgNWTK/triangle.png","imgNWTK/square.png","imgNWTK/triangle.png","noninfo","sub","3.06","{""undefined"":""110""}","","","","","","","","","","","","imgNWTK/triangle.png",""
"1723.2000000029802","","","survey-number","86","1975236","0.0-13.0-0.7","male","18","Australia","22952","25692","imgNWTK/square.png","imgNWTK/triangle.png","imgNWTK/square.png","imgNWTK/triangle.png","noninfo","sub","3.06","{""undefined"":""74""}","","","","","","","","","","","","imgNWTK/triangle.png",""
"1086.5","","","survey-number","87","1976325","0.0-13.0-0.8","male","18","Australia","22952","25692","imgNWTK/square.png","imgNWTK/triangle.png","imgNWTK/square.png","imgNWTK/triangle.png","noninfo","sub","3.06","{""undefined"":""0""}","","","","","","","","","","","","imgNWTK/triangle.png",""
"676.5","","","survey-number","88","1977005","0.0-13.0-0.9","male","18","Australia","22952","25692","imgNWTK/square.png","imgNWTK/triangle.png","imgNWTK/square.png","imgNWTK/triangle.png","noninfo","sub","3.06","{""undefined"":""0""}","","","","","","","","","","","","imgNWTK/triangle.png",""
"1357","<p><b>Imagine that you clicked on the below button for another 10 trials (this includes <i> both WIN and NO-WIN trials</i>).</p> <img src= 'imgNWTK/square.png'></img></br></br> <p><b>Please type the reward (number of points) you would expect to receive on every trial.</br> Click start to begin.</p>","0","html-button-response","89","1978364","0.0-14.0","male","18","Australia","22952","25692","imgNWTK/square.png","imgNWTK/triangle.png","imgNWTK/square.png","imgNWTK/triangle.png","noninfo","sub","3.06","","","","","","","","","","","","","",""
"1368.2000000029802","","","survey-number","90","1979734","0.0-15.0-0.0","male","18","Australia","22952","25692","imgNWTK/square.png","imgNWTK/triangle.png","imgNWTK/square.png","imgNWTK/triangle.png","noninfo","sub","3.06","{""undefined"":""0""}","","","","","","","","","","","","imgNWTK/square.png",""
"579.6999999880791","","","survey-number","91","1980317","0.0-15.0-0.1","male","18","Australia","22952","25692","imgNWTK/square.png","imgNWTK/triangle.png","imgNWTK/square.png","imgNWTK/triangle.png","noninfo","sub","3.06","{""undefined"":""0""}","","","","","","","","","","","","imgNWTK/square.png",""
"452.20000000298023","","","survey-number","92","1980773","0.0-15.0-0.2","male","18","Australia","22952","25692","imgNWTK/square.png","imgNWTK/triangle.png","imgNWTK/square.png","imgNWTK/triangle.png","noninfo","sub","3.06","{""undefined"":""0""}","","","","","","","","","","","","imgNWTK/square.png",""
"340.59999999403954","","","survey-number","93","1981117","0.0-15.0-0.3","male","18","Australia","22952","25692","imgNWTK/square.png","imgNWTK/triangle.png","imgNWTK/square.png","imgNWTK/triangle.png","noninfo","sub","3.06","{""undefined"":""0""}","","","","","","","","","","","","imgNWTK/square.png",""
"371.8999999910593","","","survey-number","94","1981492","0.0-15.0-0.4","male","18","Australia","22952","25692","imgNWTK/square.png","imgNWTK/triangle.png","imgNWTK/square.png","imgNWTK/triangle.png","noninfo","sub","3.06","{""undefined"":""0""}","","","","","","","","","","","","imgNWTK/square.png",""
"1366.5999999940395","","","survey-number","95","1982862","0.0-15.0-0.5","male","18","Australia","22952","25692","imgNWTK/square.png","imgNWTK/triangle.png","imgNWTK/square.png","imgNWTK/triangle.png","noninfo","sub","3.06","{""undefined"":""112""}","","","","","","","","","","","","imgNWTK/square.png",""
"1939.4000000059605","","","survey-number","96","1984805","0.0-15.0-0.6","male","18","Australia","22952","25692","imgNWTK/square.png","imgNWTK/triangle.png","imgNWTK/square.png","imgNWTK/triangle.png","noninfo","sub","3.06","{""undefined"":""78""}","","","","","","","","","","","","imgNWTK/square.png",""
"1508.4000000059605","","","survey-number","97","1986316","0.0-15.0-0.7","male","18","Australia","22952","25692","imgNWTK/square.png","imgNWTK/triangle.png","imgNWTK/square.png","imgNWTK/triangle.png","noninfo","sub","3.06","{""undefined"":""88""}","","","","","","","","","","","","imgNWTK/square.png",""
"829.8999999910593","","","survey-number","98","1987148","0.0-15.0-0.8","male","18","Australia","22952","25692","imgNWTK/square.png","imgNWTK/triangle.png","imgNWTK/square.png","imgNWTK/triangle.png","noninfo","sub","3.06","{""undefined"":""0""}","","","","","","","","","","","","imgNWTK/square.png",""
"1085.5","","","survey-number","99","1988236","0.0-15.0-0.9","male","18","Australia","22952","25692","imgNWTK/square.png","imgNWTK/triangle.png","imgNWTK/square.png","imgNWTK/triangle.png","noninfo","sub","3.06","{""undefined"":""0""}","","","","","","","","","","","","imgNWTK/square.png",""
"106247.29999999702","","","survey-number","100","2094509","0.0-16.0","male","18","Australia","22952","25692","imgNWTK/square.png","imgNWTK/triangle.png","imgNWTK/square.png","imgNWTK/triangle.png","noninfo","sub","3.06","{""undefined"":""60""}","","","","","","","","","","","","","imgNWTK/square.png"
"3924.5","","","survey-number","101","2098437","0.0-17.0","male","18","Australia","22952","25692","imgNWTK/square.png","imgNWTK/triangle.png","imgNWTK/square.png","imgNWTK/triangle.png","noninfo","sub","3.06","{""undefined"":""70""}","","","","","","","","","","","","","imgNWTK/triangle.png"
"9934","<p style=""text-align:left;"">Great! We are almost at the end of the study... (Please do not close the browser window yet.)</p><p> Your final points balance is 3058, which equals to a bonus payment of $3.06. Please collect your payment from Mathews Building Room 721 (Mon-Fri 9am-5pm); please email amy.x.li@unsw.edu.au at least 24 hours prior to collection so that this is ready for you.</p><p style=""text-align:left;"">To view the debriefing form, please click <a href=""./imgNWTK/debrief_3205.pdf"" target=""_blank"">here</a> to download a copy.</p><p style=""text-align:left;"">Then, <b>please click the below button</b> to confirm that you have received your debrief and to complete the study. Upon clicking ""Finish!"", your SONA credit will be automatically assigned.</p>","0","html-button-response","102","2108372","0.0-18.0","male","18","Australia","22952","25692","imgNWTK/square.png","imgNWTK/triangle.png","imgNWTK/square.png","imgNWTK/triangle.png","noninfo","sub","3.06","","","","","","","","","","","","","",""
