"rt","stimulus","button_pressed","trial_type","trial_index","time_elapsed","internal_node_id","gender","age","language","PID","sona_id","subStim","optStim","stim1","stim2","infoCond","optimCond","bonus","responses","banditTrial","choice","cue","feedback","estimateData","leftOption","rightOption","choiceName","leftInput","rightInput","key_press","postQ","singleEst"
"7820","<p>Thank you for signing up to participate in SONA Study 476! <br> During this study, please focus on the experiment and refrain from activities such as:</p>- <b>Switching to other tabs on your browser (this will be monitored via the experiment)</br> - Using your mobile phone/cell phone</br> - Communicating with others</br></br></b><p>This way, you are helping to provide data that is useful for psychological research. We thank you for your cooperation!</p>","0","html-button-response","0","7824","0.0-0.0","female","18","Australia","72651","26597","imgNWTK/square.png","imgNWTK/triangle.png","imgNWTK/square.png","imgNWTK/triangle.png","noninfo","sub","3.08","","","","","","","","","","","","","",""
"1468","<p>Welcome to the experiment!</p><p>You will now read some instructions about the task. Press the 'Next' button to continue. </p>","0","html-button-response","1","9294","0.0-1.0","female","18","Australia","72651","26597","imgNWTK/square.png","imgNWTK/triangle.png","imgNWTK/square.png","imgNWTK/triangle.png","noninfo","sub","3.08","","","","","","","","","","","","","",""
"9915","<p> On each trial throughout the experiment you will choose between two options, </br>a <b>Black Square </b> and <b> Black Triangle </b>, as seen below.</p><div><div style= 'float: left; width: 300px; margin: 10px 10px;'><img src= 'imgNWTK/square.png'></img></div><div style= 'float: right; width: 300px; margin: 10px 10px;'><img src= 'imgNWTK/triangle.png'></img></div></div><br/><br/><br/><br/><br/><br/><br/><br/><br/><br/><br/><p>Each option results in winning points or receiving 0 points.</br>There is a 50% chance of either winning or receiving 0 points.</p><p>You won't receive the outcome until after a <b> 20 second delay</b>.</p>","0","html-button-response","2","19212","0.0-2.0-0.0","female","18","Australia","72651","26597","imgNWTK/square.png","imgNWTK/triangle.png","imgNWTK/square.png","imgNWTK/triangle.png","noninfo","sub","3.08","","","","","","","","","","","","","",""
"17187","<img src= 'imgNWTK/NonInfoDiagram.png'></img><p>As seen above, whether you choose the square or triangle, you will receive a coloured circle after the choice. </p> <p>This circle will be on screen for 20 seconds until you win points or receive 0 points.</p><p>The coloured circle depends on which option you chose. </br> In the above example, choosing a triangle leads to a green circle and choosing the square leads to a red circle.</p>Please note: the circles in your task will be different to the above colours.</br></br>","0","html-button-response","3","36401","0.0-2.0-1.0","female","18","Australia","72651","26597","imgNWTK/square.png","imgNWTK/triangle.png","imgNWTK/square.png","imgNWTK/triangle.png","noninfo","sub","3.08","","","","","","","","","","","","","",""
"7985","<img src= 'cues/winTrials_noInfo.png' width = '1200'></img><p>To reiterate, 50% of the outcomes of each option will be WIN TRIALS, and the other 50% will be NO-WIN TRIALS.","0","html-button-response","4","44388","0.0-2.0-2.0","female","18","Australia","72651","26597","imgNWTK/square.png","imgNWTK/triangle.png","imgNWTK/square.png","imgNWTK/triangle.png","noninfo","sub","3.08","","","","","","","","","","","","","",""
"5189","<p> There will be <b>four blocks</b> in the experiment.</br>You will be given a short 15 second break between each block.</p><p><b>The points and the options will remain the same between the blocks.</b></p>The blocks are there just to give you a small break.</br></br></br></br><p>The points you earn in the task are also equal to <b> actual money</b>.</br> <b>1000 points is equal to $1 AUD</b></p><p>This is the rate you will be paid at the experiment's end.","0","html-button-response","5","49580","0.0-2.0-3.0","female","18","Australia","72651","26597","imgNWTK/square.png","imgNWTK/triangle.png","imgNWTK/square.png","imgNWTK/triangle.png","noninfo","sub","3.08","","","","","","","","","","","","","",""
"10732","","","survey-multi-choice","6","60318","0.0-2.0-4.0","female","18","Australia","72651","26597","imgNWTK/square.png","imgNWTK/triangle.png","imgNWTK/square.png","imgNWTK/triangle.png","noninfo","sub","3.08","{""Q0"":""20 Seconds"",""Q1"":""True"",""Q2"":""Equally""}","","","","","","","","","","","","",""
"2803","<p> Well done, all your answers were correct! <br> The experiment is about to start now. <br/> Click start to continue, or email your researcher <b>(amy.x.li@unsw.edu.au)</b> if you have any questions before starting.","0","html-button-response","7","63122","0.0-3.0","female","18","Australia","72651","26597","imgNWTK/square.png","imgNWTK/triangle.png","imgNWTK/square.png","imgNWTK/triangle.png","noninfo","sub","3.08","","","","","","","","","","","","","",""
"2099","","","bandit-task-exp6","8","69215","0.0-4.0-0.0","female","18","Australia","72651","26597","imgNWTK/square.png","imgNWTK/triangle.png","imgNWTK/square.png","imgNWTK/triangle.png","noninfo","sub","3.08","","1","2","1","0","null","imgNWTK/triangle.png","imgNWTK/square.png","imgNWTK/triangle.png","NaN","NaN","","",""
"1462","","","bandit-task-exp6","9","74014","0.0-4.0-0.1","female","18","Australia","72651","26597","imgNWTK/square.png","imgNWTK/triangle.png","imgNWTK/square.png","imgNWTK/triangle.png","noninfo","sub","3.08","","2","2","2","71","null","imgNWTK/square.png","imgNWTK/triangle.png","imgNWTK/triangle.png","NaN","NaN","","",""
"2596","","","bandit-task-exp6","10","79600","0.0-4.0-0.2","female","18","Australia","72651","26597","imgNWTK/square.png","imgNWTK/triangle.png","imgNWTK/square.png","imgNWTK/triangle.png","noninfo","sub","3.08","","3","1","2","0","null","imgNWTK/triangle.png","imgNWTK/square.png","imgNWTK/square.png","NaN","NaN","","",""
"770","","","bandit-task-exp6","11","83291","0.0-4.0-0.3","female","18","Australia","72651","26597","imgNWTK/square.png","imgNWTK/triangle.png","imgNWTK/square.png","imgNWTK/triangle.png","noninfo","sub","3.08","","4","2","2","76","null","imgNWTK/triangle.png","imgNWTK/square.png","imgNWTK/triangle.png","NaN","NaN","","",""
"916","","","bandit-task-exp6","12","86994","0.0-4.0-0.4","female","18","Australia","72651","26597","imgNWTK/square.png","imgNWTK/triangle.png","imgNWTK/square.png","imgNWTK/triangle.png","noninfo","sub","3.08","","5","2","2","89","null","imgNWTK/square.png","imgNWTK/triangle.png","imgNWTK/triangle.png","NaN","NaN","","",""
"1417","","","bandit-task-exp6","13","91853","0.0-4.0-0.5","female","18","Australia","72651","26597","imgNWTK/square.png","imgNWTK/triangle.png","imgNWTK/square.png","imgNWTK/triangle.png","noninfo","sub","3.08","","6","1","2","0","null","imgNWTK/square.png","imgNWTK/triangle.png","imgNWTK/square.png","NaN","NaN","","",""
"685","","","bandit-task-exp6","14","96053","0.0-4.0-0.6","female","18","Australia","72651","26597","imgNWTK/square.png","imgNWTK/triangle.png","imgNWTK/square.png","imgNWTK/triangle.png","noninfo","sub","3.08","","7","2","2","89","null","imgNWTK/square.png","imgNWTK/triangle.png","imgNWTK/triangle.png","NaN","NaN","","",""
"918","","","bandit-task-exp6","15","102982","0.0-4.0-0.7","female","18","Australia","72651","26597","imgNWTK/square.png","imgNWTK/triangle.png","imgNWTK/square.png","imgNWTK/triangle.png","noninfo","sub","3.08","","8","2","1","0","null","imgNWTK/square.png","imgNWTK/triangle.png","imgNWTK/triangle.png","NaN","NaN","","",""
"1484","","","bandit-task-exp6","16","109715","0.0-4.0-0.8","female","18","Australia","72651","26597","imgNWTK/square.png","imgNWTK/triangle.png","imgNWTK/square.png","imgNWTK/triangle.png","noninfo","sub","3.08","","9","1","1","125","null","imgNWTK/square.png","imgNWTK/triangle.png","imgNWTK/square.png","NaN","NaN","","",""
"880","","","bandit-task-exp6","17","114222","0.0-4.0-0.9","female","18","Australia","72651","26597","imgNWTK/square.png","imgNWTK/triangle.png","imgNWTK/square.png","imgNWTK/triangle.png","noninfo","sub","3.08","","10","2","1","0","null","imgNWTK/square.png","imgNWTK/triangle.png","imgNWTK/triangle.png","NaN","NaN","","",""
"695","","","bandit-task-exp6","18","118992","0.0-4.0-0.10","female","18","Australia","72651","26597","imgNWTK/square.png","imgNWTK/triangle.png","imgNWTK/square.png","imgNWTK/triangle.png","noninfo","sub","3.08","","11","1","2","0","null","imgNWTK/square.png","imgNWTK/triangle.png","imgNWTK/square.png","NaN","NaN","","",""
"1803","","","bandit-task-exp6","19","124558","0.0-4.0-0.11","female","18","Australia","72651","26597","imgNWTK/square.png","imgNWTK/triangle.png","imgNWTK/square.png","imgNWTK/triangle.png","noninfo","sub","3.08","","12","1","2","0","null","imgNWTK/square.png","imgNWTK/triangle.png","imgNWTK/square.png","NaN","NaN","","",""
"658","","","bandit-task-exp6","20","127938","0.0-4.0-0.12","female","18","Australia","72651","26597","imgNWTK/square.png","imgNWTK/triangle.png","imgNWTK/square.png","imgNWTK/triangle.png","noninfo","sub","3.08","","13","2","2","89","null","imgNWTK/triangle.png","imgNWTK/square.png","imgNWTK/triangle.png","NaN","NaN","","",""
"813","","","bandit-task-exp6","21","132213","0.0-4.0-0.13","female","18","Australia","72651","26597","imgNWTK/square.png","imgNWTK/triangle.png","imgNWTK/square.png","imgNWTK/triangle.png","noninfo","sub","3.08","","14","1","2","0","null","imgNWTK/square.png","imgNWTK/triangle.png","imgNWTK/square.png","NaN","NaN","","",""
"1289","","","bandit-task-exp6","22","136312","0.0-4.0-0.14","female","18","Australia","72651","26597","imgNWTK/square.png","imgNWTK/triangle.png","imgNWTK/square.png","imgNWTK/triangle.png","noninfo","sub","3.08","","15","1","2","0","null","imgNWTK/triangle.png","imgNWTK/square.png","imgNWTK/square.png","NaN","NaN","","",""
"null","<p><b> Congratulations, you have finished this block. </b> </p><p>Please take a short break before moving onto the next block.</p><p>The next block will start after a 15 second break.</p><b>Remember, the point rewards are the same between blocks","","html-keyboard-response","23","151329","0.0-5.0","female","18","Australia","72651","26597","imgNWTK/square.png","imgNWTK/triangle.png","imgNWTK/square.png","imgNWTK/triangle.png","noninfo","sub","3.08","","","","","","","","","","","","null","",""
"996","","","bandit-task-exp6","24","156612","0.0-6.0-0.0","female","18","Australia","72651","26597","imgNWTK/square.png","imgNWTK/triangle.png","imgNWTK/square.png","imgNWTK/triangle.png","noninfo","sub","3.08","","16","1","2","0","null","imgNWTK/triangle.png","imgNWTK/square.png","imgNWTK/square.png","NaN","NaN","","",""
"959","","","bandit-task-exp6","25","161323","0.0-6.0-0.1","female","18","Australia","72651","26597","imgNWTK/square.png","imgNWTK/triangle.png","imgNWTK/square.png","imgNWTK/triangle.png","noninfo","sub","3.08","","17","2","1","0","null","imgNWTK/square.png","imgNWTK/triangle.png","imgNWTK/triangle.png","NaN","NaN","","",""
"1377","","","bandit-task-exp6","26","165578","0.0-6.0-0.2","female","18","Australia","72651","26597","imgNWTK/square.png","imgNWTK/triangle.png","imgNWTK/square.png","imgNWTK/triangle.png","noninfo","sub","3.08","","18","2","2","79","null","imgNWTK/triangle.png","imgNWTK/square.png","imgNWTK/triangle.png","NaN","NaN","","",""
"1969","","","bandit-task-exp6","27","170484","0.0-6.0-0.3","female","18","Australia","72651","26597","imgNWTK/square.png","imgNWTK/triangle.png","imgNWTK/square.png","imgNWTK/triangle.png","noninfo","sub","3.08","","19","1","2","0","null","imgNWTK/triangle.png","imgNWTK/square.png","imgNWTK/square.png","NaN","NaN","","",""
"1969","","","bandit-task-exp6","28","175438","0.0-6.0-0.4","female","18","Australia","72651","26597","imgNWTK/square.png","imgNWTK/triangle.png","imgNWTK/square.png","imgNWTK/triangle.png","noninfo","sub","3.08","","20","1","1","113","null","imgNWTK/triangle.png","imgNWTK/square.png","imgNWTK/square.png","NaN","NaN","","",""
"1423","","","bandit-task-exp6","29","179586","0.0-6.0-0.5","female","18","Australia","72651","26597","imgNWTK/square.png","imgNWTK/triangle.png","imgNWTK/square.png","imgNWTK/triangle.png","noninfo","sub","3.08","","21","1","1","123","null","imgNWTK/triangle.png","imgNWTK/square.png","imgNWTK/square.png","NaN","NaN","","",""
"1095","","","bandit-task-exp6","30","183685","0.0-6.0-0.6","female","18","Australia","72651","26597","imgNWTK/square.png","imgNWTK/triangle.png","imgNWTK/square.png","imgNWTK/triangle.png","noninfo","sub","3.08","","22","2","1","0","null","imgNWTK/square.png","imgNWTK/triangle.png","imgNWTK/triangle.png","NaN","NaN","","",""
"853","","","bandit-task-exp6","31","187523","0.0-6.0-0.7","female","18","Australia","72651","26597","imgNWTK/square.png","imgNWTK/triangle.png","imgNWTK/square.png","imgNWTK/triangle.png","noninfo","sub","3.08","","23","2","1","0","null","imgNWTK/square.png","imgNWTK/triangle.png","imgNWTK/triangle.png","NaN","NaN","","",""
"1027","","","bandit-task-exp6","32","191506","0.0-6.0-0.8","female","18","Australia","72651","26597","imgNWTK/square.png","imgNWTK/triangle.png","imgNWTK/square.png","imgNWTK/triangle.png","noninfo","sub","3.08","","24","1","1","125","null","imgNWTK/square.png","imgNWTK/triangle.png","imgNWTK/square.png","NaN","NaN","","",""
"1367","","","bandit-task-exp6","33","195848","0.0-6.0-0.9","female","18","Australia","72651","26597","imgNWTK/square.png","imgNWTK/triangle.png","imgNWTK/square.png","imgNWTK/triangle.png","noninfo","sub","3.08","","25","2","1","0","null","imgNWTK/square.png","imgNWTK/triangle.png","imgNWTK/triangle.png","NaN","NaN","","",""
"794","","","bandit-task-exp6","34","199685","0.0-6.0-0.10","female","18","Australia","72651","26597","imgNWTK/square.png","imgNWTK/triangle.png","imgNWTK/square.png","imgNWTK/triangle.png","noninfo","sub","3.08","","26","2","1","0","null","imgNWTK/triangle.png","imgNWTK/square.png","imgNWTK/triangle.png","NaN","NaN","","",""
"1008","","","bandit-task-exp6","35","203572","0.0-6.0-0.11","female","18","Australia","72651","26597","imgNWTK/square.png","imgNWTK/triangle.png","imgNWTK/square.png","imgNWTK/triangle.png","noninfo","sub","3.08","","27","1","2","0","null","imgNWTK/triangle.png","imgNWTK/square.png","imgNWTK/square.png","NaN","NaN","","",""
"1453","","","bandit-task-exp6","36","208389","0.0-6.0-0.12","female","18","Australia","72651","26597","imgNWTK/square.png","imgNWTK/triangle.png","imgNWTK/square.png","imgNWTK/triangle.png","noninfo","sub","3.08","","28","1","1","113","null","imgNWTK/square.png","imgNWTK/triangle.png","imgNWTK/square.png","NaN","NaN","","",""
"1270","","","bandit-task-exp6","37","212760","0.0-6.0-0.13","female","18","Australia","72651","26597","imgNWTK/square.png","imgNWTK/triangle.png","imgNWTK/square.png","imgNWTK/triangle.png","noninfo","sub","3.08","","29","2","2","89","null","imgNWTK/square.png","imgNWTK/triangle.png","imgNWTK/triangle.png","NaN","NaN","","",""
"2393","","","bandit-task-exp6","38","218188","0.0-6.0-0.14","female","18","Australia","72651","26597","imgNWTK/square.png","imgNWTK/triangle.png","imgNWTK/square.png","imgNWTK/triangle.png","noninfo","sub","3.08","","30","1","1","112","null","imgNWTK/square.png","imgNWTK/triangle.png","imgNWTK/square.png","NaN","NaN","","",""
"null","<p><b> Congratulations, you have finished this block. </b> </p><p>Please take a short break before moving onto the next block.</p><p>The next block will start after a 15 second break.</p><b>Remember, the point rewards are the same between blocks","","html-keyboard-response","39","233199","0.0-7.0","female","18","Australia","72651","26597","imgNWTK/square.png","imgNWTK/triangle.png","imgNWTK/square.png","imgNWTK/triangle.png","noninfo","sub","3.08","","","","","","","","","","","","null","",""
"5448","","","bandit-task-exp6","40","241976","0.0-8.0-0.0","female","18","Australia","72651","26597","imgNWTK/square.png","imgNWTK/triangle.png","imgNWTK/square.png","imgNWTK/triangle.png","noninfo","sub","3.08","","31","2","1","0","null","imgNWTK/square.png","imgNWTK/triangle.png","imgNWTK/triangle.png","NaN","NaN","","",""
"1416","","","bandit-task-exp6","41","247212","0.0-8.0-0.1","female","18","Australia","72651","26597","imgNWTK/square.png","imgNWTK/triangle.png","imgNWTK/square.png","imgNWTK/triangle.png","noninfo","sub","3.08","","32","1","1","125","null","imgNWTK/triangle.png","imgNWTK/square.png","imgNWTK/square.png","NaN","NaN","","",""
"1183","","","bandit-task-exp6","42","251467","0.0-8.0-0.2","female","18","Australia","72651","26597","imgNWTK/square.png","imgNWTK/triangle.png","imgNWTK/square.png","imgNWTK/triangle.png","noninfo","sub","3.08","","33","1","2","0","null","imgNWTK/square.png","imgNWTK/triangle.png","imgNWTK/square.png","NaN","NaN","","",""
"881","","","bandit-task-exp6","43","255489","0.0-8.0-0.3","female","18","Australia","72651","26597","imgNWTK/square.png","imgNWTK/triangle.png","imgNWTK/square.png","imgNWTK/triangle.png","noninfo","sub","3.08","","34","2","2","77","null","imgNWTK/square.png","imgNWTK/triangle.png","imgNWTK/triangle.png","NaN","NaN","","",""
"1074","","","bandit-task-exp6","44","259899","0.0-8.0-0.4","female","18","Australia","72651","26597","imgNWTK/square.png","imgNWTK/triangle.png","imgNWTK/square.png","imgNWTK/triangle.png","noninfo","sub","3.08","","35","1","2","0","null","imgNWTK/triangle.png","imgNWTK/square.png","imgNWTK/square.png","NaN","NaN","","",""
"1074","","","bandit-task-exp6","45","263951","0.0-8.0-0.5","female","18","Australia","72651","26597","imgNWTK/square.png","imgNWTK/triangle.png","imgNWTK/square.png","imgNWTK/triangle.png","noninfo","sub","3.08","","36","2","2","84","null","imgNWTK/square.png","imgNWTK/triangle.png","imgNWTK/triangle.png","NaN","NaN","","",""
"812","","","bandit-task-exp6","46","268145","0.0-8.0-0.6","female","18","Australia","72651","26597","imgNWTK/square.png","imgNWTK/triangle.png","imgNWTK/square.png","imgNWTK/triangle.png","noninfo","sub","3.08","","37","1","1","120","null","imgNWTK/square.png","imgNWTK/triangle.png","imgNWTK/square.png","NaN","NaN","","",""
"726","","","bandit-task-exp6","47","271799","0.0-8.0-0.7","female","18","Australia","72651","26597","imgNWTK/square.png","imgNWTK/triangle.png","imgNWTK/square.png","imgNWTK/triangle.png","noninfo","sub","3.08","","38","2","2","84","null","imgNWTK/square.png","imgNWTK/triangle.png","imgNWTK/triangle.png","NaN","NaN","","",""
"1191","","","bandit-task-exp6","48","276530","0.0-8.0-0.8","female","18","Australia","72651","26597","imgNWTK/square.png","imgNWTK/triangle.png","imgNWTK/square.png","imgNWTK/triangle.png","noninfo","sub","3.08","","39","1","1","124","null","imgNWTK/triangle.png","imgNWTK/square.png","imgNWTK/square.png","NaN","NaN","","",""
"2599","","","bandit-task-exp6","49","281979","0.0-8.0-0.9","female","18","Australia","72651","26597","imgNWTK/square.png","imgNWTK/triangle.png","imgNWTK/square.png","imgNWTK/triangle.png","noninfo","sub","3.08","","40","2","2","78","null","imgNWTK/triangle.png","imgNWTK/square.png","imgNWTK/triangle.png","NaN","NaN","","",""
"1289","","","bandit-task-exp6","50","286088","0.0-8.0-0.10","female","18","Australia","72651","26597","imgNWTK/square.png","imgNWTK/triangle.png","imgNWTK/square.png","imgNWTK/triangle.png","noninfo","sub","3.08","","41","1","1","117","null","imgNWTK/triangle.png","imgNWTK/square.png","imgNWTK/square.png","NaN","NaN","","",""
"1152","","","bandit-task-exp6","51","290342","0.0-8.0-0.11","female","18","Australia","72651","26597","imgNWTK/square.png","imgNWTK/triangle.png","imgNWTK/square.png","imgNWTK/triangle.png","noninfo","sub","3.08","","42","2","1","0","null","imgNWTK/triangle.png","imgNWTK/square.png","imgNWTK/triangle.png","NaN","NaN","","",""
"1056","","","bandit-task-exp6","52","295269","0.0-8.0-0.12","female","18","Australia","72651","26597","imgNWTK/square.png","imgNWTK/triangle.png","imgNWTK/square.png","imgNWTK/triangle.png","noninfo","sub","3.08","","43","2","1","0","null","imgNWTK/square.png","imgNWTK/triangle.png","imgNWTK/triangle.png","NaN","NaN","","",""
"1288","","","bandit-task-exp6","53","299590","0.0-8.0-0.13","female","18","Australia","72651","26597","imgNWTK/square.png","imgNWTK/triangle.png","imgNWTK/square.png","imgNWTK/triangle.png","noninfo","sub","3.08","","44","1","1","122","null","imgNWTK/square.png","imgNWTK/triangle.png","imgNWTK/square.png","NaN","NaN","","",""
"716","","","bandit-task-exp6","54","303068","0.0-8.0-0.14","female","18","Australia","72651","26597","imgNWTK/square.png","imgNWTK/triangle.png","imgNWTK/square.png","imgNWTK/triangle.png","noninfo","sub","3.08","","45","2","1","0","null","imgNWTK/square.png","imgNWTK/triangle.png","imgNWTK/triangle.png","NaN","NaN","","",""
"null","<p><b> Congratulations, you have finished this block. </b> </p><p>Please take a short break before moving onto the next block.</p><p>The next block will start after a 15 second break.</p><b>Remember, the point rewards are the same between blocks","","html-keyboard-response","55","318084","0.0-9.0","female","18","Australia","72651","26597","imgNWTK/square.png","imgNWTK/triangle.png","imgNWTK/square.png","imgNWTK/triangle.png","noninfo","sub","3.08","","","","","","","","","","","","null","",""
"19987","","","bandit-task-exp6","56","341842","0.0-10.0-0.0","female","18","Australia","72651","26597","imgNWTK/square.png","imgNWTK/triangle.png","imgNWTK/square.png","imgNWTK/triangle.png","noninfo","sub","3.08","","46","2","2","72","null","imgNWTK/square.png","imgNWTK/triangle.png","imgNWTK/triangle.png","76","0","","",""
"7437","","","bandit-task-exp6","57","352752","0.0-10.0-0.1","female","18","Australia","72651","26597","imgNWTK/square.png","imgNWTK/triangle.png","imgNWTK/square.png","imgNWTK/triangle.png","noninfo","sub","3.08","","47","1","2","0","null","imgNWTK/square.png","imgNWTK/triangle.png","imgNWTK/square.png","120","0","","",""
"6127","","","bandit-task-exp6","58","362038","0.0-10.0-0.2","female","18","Australia","72651","26597","imgNWTK/square.png","imgNWTK/triangle.png","imgNWTK/square.png","imgNWTK/triangle.png","noninfo","sub","3.08","","48","1","2","0","null","imgNWTK/square.png","imgNWTK/triangle.png","imgNWTK/square.png","76","0","","",""
"4738","","","bandit-task-exp6","59","370025","0.0-10.0-0.3","female","18","Australia","72651","26597","imgNWTK/square.png","imgNWTK/triangle.png","imgNWTK/square.png","imgNWTK/triangle.png","noninfo","sub","3.08","","49","1","2","0","null","imgNWTK/square.png","imgNWTK/triangle.png","imgNWTK/square.png","76","0","","",""
"6678","","","bandit-task-exp6","60","380331","0.0-10.0-0.4","female","18","Australia","72651","26597","imgNWTK/square.png","imgNWTK/triangle.png","imgNWTK/square.png","imgNWTK/triangle.png","noninfo","sub","3.08","","50","1","2","0","null","imgNWTK/square.png","imgNWTK/triangle.png","imgNWTK/square.png","120","76","","",""
"5512","","","bandit-task-exp6","61","389112","0.0-10.0-0.5","female","18","Australia","72651","26597","imgNWTK/square.png","imgNWTK/triangle.png","imgNWTK/square.png","imgNWTK/triangle.png","noninfo","sub","3.08","","51","2","1","0","null","imgNWTK/square.png","imgNWTK/triangle.png","imgNWTK/triangle.png","76","120","","",""
"5513","","","bandit-task-exp6","62","397874","0.0-10.0-0.6","female","18","Australia","72651","26597","imgNWTK/square.png","imgNWTK/triangle.png","imgNWTK/square.png","imgNWTK/triangle.png","noninfo","sub","3.08","","52","1","1","122","null","imgNWTK/triangle.png","imgNWTK/square.png","imgNWTK/square.png","76","120","","",""
"5951","","","bandit-task-exp6","63","407647","0.0-10.0-0.7","female","18","Australia","72651","26597","imgNWTK/square.png","imgNWTK/triangle.png","imgNWTK/square.png","imgNWTK/triangle.png","noninfo","sub","3.08","","53","1","2","0","null","imgNWTK/square.png","imgNWTK/triangle.png","imgNWTK/square.png","120","76","","",""
"5125","","","bandit-task-exp6","64","415729","0.0-10.0-0.8","female","18","Australia","72651","26597","imgNWTK/square.png","imgNWTK/triangle.png","imgNWTK/square.png","imgNWTK/triangle.png","noninfo","sub","3.08","","54","1","1","129","null","imgNWTK/square.png","imgNWTK/triangle.png","imgNWTK/square.png","120","76","","",""
"4503","","","bandit-task-exp6","65","422975","0.0-10.0-0.9","female","18","Australia","72651","26597","imgNWTK/square.png","imgNWTK/triangle.png","imgNWTK/square.png","imgNWTK/triangle.png","noninfo","sub","3.08","","55","2","2","84","null","imgNWTK/square.png","imgNWTK/triangle.png","imgNWTK/triangle.png","76","120","","",""
"6680","","","bandit-task-exp6","66","432447","0.0-10.0-0.10","female","18","Australia","72651","26597","imgNWTK/square.png","imgNWTK/triangle.png","imgNWTK/square.png","imgNWTK/triangle.png","noninfo","sub","3.08","","56","1","2","0","null","imgNWTK/square.png","imgNWTK/triangle.png","imgNWTK/square.png","120","76","","",""
"4277","","","bandit-task-exp6","67","439790","0.0-10.0-0.11","female","18","Australia","72651","26597","imgNWTK/square.png","imgNWTK/triangle.png","imgNWTK/square.png","imgNWTK/triangle.png","noninfo","sub","3.08","","57","2","2","86","null","imgNWTK/square.png","imgNWTK/triangle.png","imgNWTK/triangle.png","0","76","","",""
"4609","","","bandit-task-exp6","68","447358","0.0-10.0-0.12","female","18","Australia","72651","26597","imgNWTK/square.png","imgNWTK/triangle.png","imgNWTK/square.png","imgNWTK/triangle.png","noninfo","sub","3.08","","58","1","1","120","null","imgNWTK/triangle.png","imgNWTK/square.png","imgNWTK/square.png","76","120","","",""
"7040","","","bandit-task-exp6","69","458422","0.0-10.0-0.13","female","18","Australia","72651","26597","imgNWTK/square.png","imgNWTK/triangle.png","imgNWTK/square.png","imgNWTK/triangle.png","noninfo","sub","3.08","","59","1","1","120","null","imgNWTK/square.png","imgNWTK/triangle.png","imgNWTK/square.png","120","76","","",""
"6672","","","bandit-task-exp6","70","467777","0.0-10.0-0.14","female","18","Australia","72651","26597","imgNWTK/square.png","imgNWTK/triangle.png","imgNWTK/square.png","imgNWTK/triangle.png","noninfo","sub","3.08","","60","1","1","126","null","imgNWTK/square.png","imgNWTK/triangle.png","imgNWTK/square.png","76","0","","",""
"3744","<p> Congratulations, you have finished the main part of the experiment. </p><p>Before you finish, we have a few short questions about the options and outcomes you saw in the task.</p>","0","html-button-response","71","471522","0.0-11.0","female","18","Australia","72651","26597","imgNWTK/square.png","imgNWTK/triangle.png","imgNWTK/square.png","imgNWTK/triangle.png","noninfo","sub","3.08","","","","","","","","","","","","","",""
"3044","<p><b>Now, imagine that you clicked on the below button for another 10 trials (this includes <i> BOTH WIN and NO-WIN trials</i>).</p> <img src= 'imgNWTK/triangle.png'></img></br></br> <p><b>Please type the reward (number of points) you would expect to receive on every trial.</br> Click start to begin.</p>","0","html-button-response","72","474567","0.0-12.0","female","18","Australia","72651","26597","imgNWTK/square.png","imgNWTK/triangle.png","imgNWTK/square.png","imgNWTK/triangle.png","noninfo","sub","3.08","","","","","","","","","","","","","",""
"6983.300000011921","","","survey-number","73","481559","0.0-13.0-0.0","female","18","Australia","72651","26597","imgNWTK/square.png","imgNWTK/triangle.png","imgNWTK/square.png","imgNWTK/triangle.png","noninfo","sub","3.08","{""undefined"":""120""}","","","","","","","","","","","","imgNWTK/triangle.png",""
"3261.899999976158","","","survey-number","74","484826","0.0-13.0-0.1","female","18","Australia","72651","26597","imgNWTK/square.png","imgNWTK/triangle.png","imgNWTK/square.png","imgNWTK/triangle.png","noninfo","sub","3.08","{""undefined"":""76""}","","","","","","","","","","","","imgNWTK/triangle.png",""
"3219.100000023842","","","survey-number","75","488051","0.0-13.0-0.2","female","18","Australia","72651","26597","imgNWTK/square.png","imgNWTK/triangle.png","imgNWTK/square.png","imgNWTK/triangle.png","noninfo","sub","3.08","{""undefined"":""120""}","","","","","","","","","","","","imgNWTK/triangle.png",""
"2391.5","","","survey-number","76","490446","0.0-13.0-0.3","female","18","Australia","72651","26597","imgNWTK/square.png","imgNWTK/triangle.png","imgNWTK/square.png","imgNWTK/triangle.png","noninfo","sub","3.08","{""undefined"":""0""}","","","","","","","","","","","","imgNWTK/triangle.png",""
"1450.5","","","survey-number","77","491902","0.0-13.0-0.4","female","18","Australia","72651","26597","imgNWTK/square.png","imgNWTK/triangle.png","imgNWTK/square.png","imgNWTK/triangle.png","noninfo","sub","3.08","{""undefined"":""76""}","","","","","","","","","","","","imgNWTK/triangle.png",""
"1774","","","survey-number","78","493681","0.0-13.0-0.5","female","18","Australia","72651","26597","imgNWTK/square.png","imgNWTK/triangle.png","imgNWTK/square.png","imgNWTK/triangle.png","noninfo","sub","3.08","{""undefined"":""120""}","","","","","","","","","","","","imgNWTK/triangle.png",""
"1617.199999988079","","","survey-number","79","495302","0.0-13.0-0.6","female","18","Australia","72651","26597","imgNWTK/square.png","imgNWTK/triangle.png","imgNWTK/square.png","imgNWTK/triangle.png","noninfo","sub","3.08","{""undefined"":""0""}","","","","","","","","","","","","imgNWTK/triangle.png",""
"780.3999999761581","","","survey-number","80","496088","0.0-13.0-0.7","female","18","Australia","72651","26597","imgNWTK/square.png","imgNWTK/triangle.png","imgNWTK/square.png","imgNWTK/triangle.png","noninfo","sub","3.08","{""undefined"":""0""}","","","","","","","","","","","","imgNWTK/triangle.png",""
"1222.5999999642372","","","survey-number","81","497315","0.0-13.0-0.8","female","18","Australia","72651","26597","imgNWTK/square.png","imgNWTK/triangle.png","imgNWTK/square.png","imgNWTK/triangle.png","noninfo","sub","3.08","{""undefined"":""0""}","","","","","","","","","","","","imgNWTK/triangle.png",""
"1369.4000000357628","","","survey-number","82","498688","0.0-13.0-0.9","female","18","Australia","72651","26597","imgNWTK/square.png","imgNWTK/triangle.png","imgNWTK/square.png","imgNWTK/triangle.png","noninfo","sub","3.08","{""undefined"":""120""}","","","","","","","","","","","","imgNWTK/triangle.png",""
"1635","<p><b>Imagine that you clicked on the below button for another 10 trials (this includes <i> both WIN and NO-WIN trials</i>).</p> <img src= 'imgNWTK/square.png'></img></br></br> <p><b>Please type the reward (number of points) you would expect to receive on every trial.</br> Click start to begin.</p>","0","html-button-response","83","500325","0.0-14.0","female","18","Australia","72651","26597","imgNWTK/square.png","imgNWTK/triangle.png","imgNWTK/square.png","imgNWTK/triangle.png","noninfo","sub","3.08","","","","","","","","","","","","","",""
"2031.6000000238419","","","survey-number","84","502362","0.0-15.0-0.0","female","18","Australia","72651","26597","imgNWTK/square.png","imgNWTK/triangle.png","imgNWTK/square.png","imgNWTK/triangle.png","noninfo","sub","3.08","{""undefined"":""0""}","","","","","","","","","","","","imgNWTK/square.png",""
"956.2000000476837","","","survey-number","85","503324","0.0-15.0-0.1","female","18","Australia","72651","26597","imgNWTK/square.png","imgNWTK/triangle.png","imgNWTK/square.png","imgNWTK/triangle.png","noninfo","sub","3.08","{""undefined"":""0""}","","","","","","","","","","","","imgNWTK/square.png",""
"672.7000000476837","","","survey-number","86","504002","0.0-15.0-0.2","female","18","Australia","72651","26597","imgNWTK/square.png","imgNWTK/triangle.png","imgNWTK/square.png","imgNWTK/triangle.png","noninfo","sub","3.08","{""undefined"":""0""}","","","","","","","","","","","","imgNWTK/square.png",""
"1542","","","survey-number","87","505549","0.0-15.0-0.3","female","18","Australia","72651","26597","imgNWTK/square.png","imgNWTK/triangle.png","imgNWTK/square.png","imgNWTK/triangle.png","noninfo","sub","3.08","{""undefined"":""76""}","","","","","","","","","","","","imgNWTK/square.png",""
"979.3999999761581","","","survey-number","88","506532","0.0-15.0-0.4","female","18","Australia","72651","26597","imgNWTK/square.png","imgNWTK/triangle.png","imgNWTK/square.png","imgNWTK/triangle.png","noninfo","sub","3.08","{""undefined"":""76""}","","","","","","","","","","","","imgNWTK/square.png",""
"852.5","","","survey-number","89","507390","0.0-15.0-0.5","female","18","Australia","72651","26597","imgNWTK/square.png","imgNWTK/triangle.png","imgNWTK/square.png","imgNWTK/triangle.png","noninfo","sub","3.08","{""undefined"":""76""}","","","","","","","","","","","","imgNWTK/square.png",""
"536.8000000119209","","","survey-number","90","507932","0.0-15.0-0.6","female","18","Australia","72651","26597","imgNWTK/square.png","imgNWTK/triangle.png","imgNWTK/square.png","imgNWTK/triangle.png","noninfo","sub","3.08","{""undefined"":""0""}","","","","","","","","","","","","imgNWTK/square.png",""
"1818.8999999761581","","","survey-number","91","509755","0.0-15.0-0.7","female","18","Australia","72651","26597","imgNWTK/square.png","imgNWTK/triangle.png","imgNWTK/square.png","imgNWTK/triangle.png","noninfo","sub","3.08","{""undefined"":""0""}","","","","","","","","","","","","imgNWTK/square.png",""
"1633.7000000476837","","","survey-number","92","511394","0.0-15.0-0.8","female","18","Australia","72651","26597","imgNWTK/square.png","imgNWTK/triangle.png","imgNWTK/square.png","imgNWTK/triangle.png","noninfo","sub","3.08","{""undefined"":""120""}","","","","","","","","","","","","imgNWTK/square.png",""
"795.3000000119209","","","survey-number","93","512195","0.0-15.0-0.9","female","18","Australia","72651","26597","imgNWTK/square.png","imgNWTK/triangle.png","imgNWTK/square.png","imgNWTK/triangle.png","noninfo","sub","3.08","{""undefined"":""0""}","","","","","","","","","","","","imgNWTK/square.png",""
"16954.5","","","survey-number","94","529170","0.0-16.0","female","18","Australia","72651","26597","imgNWTK/square.png","imgNWTK/triangle.png","imgNWTK/square.png","imgNWTK/triangle.png","noninfo","sub","3.08","{""undefined"":""76""}","","","","","","","","","","","","","imgNWTK/square.png"
"2328.800000011921","","","survey-number","95","531505","0.0-17.0","female","18","Australia","72651","26597","imgNWTK/square.png","imgNWTK/triangle.png","imgNWTK/square.png","imgNWTK/triangle.png","noninfo","sub","3.08","{""undefined"":""120""}","","","","","","","","","","","","","imgNWTK/triangle.png"
"9978","<p style=""text-align:left;"">Great! We are almost at the end of the study... (Please do not close the browser window yet.)</p><p> Your final points balance is 3083, which equals to a bonus payment of $3.08. Please collect your payment from Mathews Building Room 721 (Wed-Fri 9am-5pm); please email jaimie.lee@unsw.edu.au at least 24 hours prior to collection so that this is ready for you.</p><p style=""text-align:left;"">To view the debriefing form, please click <a href=""./imgNWTK/debrief_3205.pdf"" target=""_blank"">here</a> to download a copy.</p><p style=""text-align:left;"">Then, <b>please click the below button</b> to confirm that you have received your debrief and to complete the study. Upon clicking ""Finish!"", your SONA credit will be automatically assigned.</p>","0","html-button-response","96","541484","0.0-18.0","female","18","Australia","72651","26597","imgNWTK/square.png","imgNWTK/triangle.png","imgNWTK/square.png","imgNWTK/triangle.png","noninfo","sub","3.08","","","","","","","","","","","","","",""
