"rt","stimulus","button_pressed","trial_type","trial_index","time_elapsed","internal_node_id","gender","age","language","PID","sona_id","subStim","optStim","stim1","stim2","infoCond","optimCond","bonus","responses","banditTrial","choice","cue","feedback","estimateData","leftOption","rightOption","choiceName","leftInput","rightInput","key_press","postQ","singleEst"
"27635","<p>Thank you for signing up to participate in SONA Study 465! <br> During this study, please focus on the experiment and refrain from activities such as:</p>- <b>Switching to other tabs on your browser (this will be monitored via the experiment)</br> - Using your mobile phone/cell phone</br> - Communicating with others</br></br></b><p>This way, you are helping to provide data that is useful for psychological research. We thank you for your cooperation!</p>","0","html-button-response","0","27639","0.0-0.0","female","40","Australia","9298","25984","imgNWTK/square.png","imgNWTK/triangle.png","imgNWTK/square.png","imgNWTK/triangle.png","noninfo","sub","3.10","","","","","","","","","","","","","",""
"18563","<p>Welcome to the experiment!</p><p>You will now read some instructions about the task. Press the 'Next' button to continue. </p>","0","html-button-response","1","46204","0.0-1.0","female","40","Australia","9298","25984","imgNWTK/square.png","imgNWTK/triangle.png","imgNWTK/square.png","imgNWTK/triangle.png","noninfo","sub","3.10","","","","","","","","","","","","","",""
"24754","<p> On each trial throughout the experiment you will choose between two options, </br>a <b>Black Square </b> and <b> Black Triangle </b>, as seen below.</p><div><div style= 'float: left; width: 300px; margin: 10px 10px;'><img src= 'imgNWTK/square.png'></img></div><div style= 'float: right; width: 300px; margin: 10px 10px;'><img src= 'imgNWTK/triangle.png'></img></div></div><br/><br/><br/><br/><br/><br/><br/><br/><br/><br/><br/><p>Each option results in winning points or receiving 0 points.</br>There is a 50% chance of either winning or receiving 0 points.</p><p>You won't receive the outcome until after a <b> 20 second delay</b>.</p>","0","html-button-response","2","70960","0.0-2.0-0.0","female","40","Australia","9298","25984","imgNWTK/square.png","imgNWTK/triangle.png","imgNWTK/square.png","imgNWTK/triangle.png","noninfo","sub","3.10","","","","","","","","","","","","","",""
"55326","<img src= 'imgNWTK/NonInfoDiagram.png'></img><p>As seen above, whether you choose the square or triangle, you will receive a coloured circle after the choice. </p> <p>This circle will be on screen for 20 seconds until you win points or receive 0 points.</p><p>The coloured circle depends on which option you chose. </br> In the above example, choosing a triangle leads to a green circle and choosing the square leads to a red circle.</p>Please note: the circles in your task will be different to the above colours.</br></br>","0","html-button-response","3","126288","0.0-2.0-1.0","female","40","Australia","9298","25984","imgNWTK/square.png","imgNWTK/triangle.png","imgNWTK/square.png","imgNWTK/triangle.png","noninfo","sub","3.10","","","","","","","","","","","","","",""
"33950","<img src= 'cues/winTrials_noInfo.png' width = '1200'></img><p>To reiterate, 50% of the outcomes of each option will be WIN TRIALS, and the other 50% will be NO-WIN TRIALS.","0","html-button-response","4","160241","0.0-2.0-2.0","female","40","Australia","9298","25984","imgNWTK/square.png","imgNWTK/triangle.png","imgNWTK/square.png","imgNWTK/triangle.png","noninfo","sub","3.10","","","","","","","","","","","","","",""
"43322","<p> There will be <b>four blocks</b> in the experiment.</br>You will be given a short 15 second break between each block.</p><p><b>The points and the options will remain the same between the blocks.</b></p>The blocks are there just to give you a small break.</br></br></br></br><p>The points you earn in the task are also equal to <b> actual money</b>.</br> <b>1000 points is equal to $1 AUD</b></p><p>This is the rate you will be paid at the experiment's end.","0","html-button-response","5","203565","0.0-2.0-3.0","female","40","Australia","9298","25984","imgNWTK/square.png","imgNWTK/triangle.png","imgNWTK/square.png","imgNWTK/triangle.png","noninfo","sub","3.10","","","","","","","","","","","","","",""
"21266","","","survey-multi-choice","6","224855","0.0-2.0-4.0","female","40","Australia","9298","25984","imgNWTK/square.png","imgNWTK/triangle.png","imgNWTK/square.png","imgNWTK/triangle.png","noninfo","sub","3.10","{""Q0"":""20 Seconds"",""Q1"":""True"",""Q2"":""Equally""}","","","","","","","","","","","","",""
"6892","<p> Well done, all your answers were correct! <br> The experiment is about to start now. <br/> Click start to continue, or email your researcher <b>(amy.x.li@unsw.edu.au)</b> if you have any questions before starting.","0","html-button-response","7","231751","0.0-3.0","female","40","Australia","9298","25984","imgNWTK/square.png","imgNWTK/triangle.png","imgNWTK/square.png","imgNWTK/triangle.png","noninfo","sub","3.10","","","","","","","","","","","","","",""
"7584","","","bandit-task-exp6","8","263568","0.0-4.0-0.0","female","40","Australia","9298","25984","imgNWTK/square.png","imgNWTK/triangle.png","imgNWTK/square.png","imgNWTK/triangle.png","noninfo","sub","3.10","","1","1","2","0","null","imgNWTK/square.png","imgNWTK/triangle.png","imgNWTK/square.png","NaN","NaN","","",""
"24366","","","bandit-task-exp6","9","312438","0.0-4.0-0.1","female","40","Australia","9298","25984","imgNWTK/square.png","imgNWTK/triangle.png","imgNWTK/square.png","imgNWTK/triangle.png","noninfo","sub","3.10","","2","1","2","0","null","imgNWTK/triangle.png","imgNWTK/square.png","imgNWTK/square.png","NaN","NaN","","",""
"5939","","","bandit-task-exp6","10","341419","0.0-4.0-0.2","female","40","Australia","9298","25984","imgNWTK/square.png","imgNWTK/triangle.png","imgNWTK/square.png","imgNWTK/triangle.png","noninfo","sub","3.10","","3","2","1","0","null","imgNWTK/triangle.png","imgNWTK/square.png","imgNWTK/triangle.png","NaN","NaN","","",""
"2698","","","bandit-task-exp6","11","366921","0.0-4.0-0.3","female","40","Australia","9298","25984","imgNWTK/square.png","imgNWTK/triangle.png","imgNWTK/square.png","imgNWTK/triangle.png","noninfo","sub","3.10","","4","1","2","0","null","imgNWTK/triangle.png","imgNWTK/square.png","imgNWTK/square.png","NaN","NaN","","",""
"12291","","","bandit-task-exp6","12","403094","0.0-4.0-0.4","female","40","Australia","9298","25984","imgNWTK/square.png","imgNWTK/triangle.png","imgNWTK/square.png","imgNWTK/triangle.png","noninfo","sub","3.10","","5","2","2","78","null","imgNWTK/square.png","imgNWTK/triangle.png","imgNWTK/triangle.png","NaN","NaN","","",""
"4092","","","bandit-task-exp6","13","430006","0.0-4.0-0.5","female","40","Australia","9298","25984","imgNWTK/square.png","imgNWTK/triangle.png","imgNWTK/square.png","imgNWTK/triangle.png","noninfo","sub","3.10","","6","2","1","0","null","imgNWTK/square.png","imgNWTK/triangle.png","imgNWTK/triangle.png","NaN","NaN","","",""
"2316","","","bandit-task-exp6","14","454432","0.0-4.0-0.6","female","40","Australia","9298","25984","imgNWTK/square.png","imgNWTK/triangle.png","imgNWTK/square.png","imgNWTK/triangle.png","noninfo","sub","3.10","","7","1","2","0","null","imgNWTK/square.png","imgNWTK/triangle.png","imgNWTK/square.png","NaN","NaN","","",""
"1378","","","bandit-task-exp6","15","478156","0.0-4.0-0.7","female","40","Australia","9298","25984","imgNWTK/square.png","imgNWTK/triangle.png","imgNWTK/square.png","imgNWTK/triangle.png","noninfo","sub","3.10","","8","1","1","111","null","imgNWTK/triangle.png","imgNWTK/square.png","imgNWTK/square.png","NaN","NaN","","",""
"2861","","","bandit-task-exp6","16","503188","0.0-4.0-0.8","female","40","Australia","9298","25984","imgNWTK/square.png","imgNWTK/triangle.png","imgNWTK/square.png","imgNWTK/triangle.png","noninfo","sub","3.10","","9","2","2","85","null","imgNWTK/square.png","imgNWTK/triangle.png","imgNWTK/triangle.png","NaN","NaN","","",""
"1748","","","bandit-task-exp6","17","527076","0.0-4.0-0.9","female","40","Australia","9298","25984","imgNWTK/square.png","imgNWTK/triangle.png","imgNWTK/square.png","imgNWTK/triangle.png","noninfo","sub","3.10","","10","1","2","0","null","imgNWTK/triangle.png","imgNWTK/square.png","imgNWTK/square.png","NaN","NaN","","",""
"1538","","","bandit-task-exp6","18","551509","0.0-4.0-0.10","female","40","Australia","9298","25984","imgNWTK/square.png","imgNWTK/triangle.png","imgNWTK/square.png","imgNWTK/triangle.png","noninfo","sub","3.10","","11","1","1","113","null","imgNWTK/square.png","imgNWTK/triangle.png","imgNWTK/square.png","NaN","NaN","","",""
"1235","","","bandit-task-exp6","19","574712","0.0-4.0-0.11","female","40","Australia","9298","25984","imgNWTK/square.png","imgNWTK/triangle.png","imgNWTK/square.png","imgNWTK/triangle.png","noninfo","sub","3.10","","12","2","1","0","null","imgNWTK/square.png","imgNWTK/triangle.png","imgNWTK/triangle.png","NaN","NaN","","",""
"1447","","","bandit-task-exp6","20","598258","0.0-4.0-0.12","female","40","Australia","9298","25984","imgNWTK/square.png","imgNWTK/triangle.png","imgNWTK/square.png","imgNWTK/triangle.png","noninfo","sub","3.10","","13","2","1","0","null","imgNWTK/square.png","imgNWTK/triangle.png","imgNWTK/triangle.png","NaN","NaN","","",""
"2798","","","bandit-task-exp6","21","623131","0.0-4.0-0.13","female","40","Australia","9298","25984","imgNWTK/square.png","imgNWTK/triangle.png","imgNWTK/square.png","imgNWTK/triangle.png","noninfo","sub","3.10","","14","2","2","81","null","imgNWTK/square.png","imgNWTK/triangle.png","imgNWTK/triangle.png","NaN","NaN","","",""
"1599","","","bandit-task-exp6","22","646465","0.0-4.0-0.14","female","40","Australia","9298","25984","imgNWTK/square.png","imgNWTK/triangle.png","imgNWTK/square.png","imgNWTK/triangle.png","noninfo","sub","3.10","","15","1","2","0","null","imgNWTK/triangle.png","imgNWTK/square.png","imgNWTK/square.png","NaN","NaN","","",""
"null","<p><b> Congratulations, you have finished this block. </b> </p><p>Please take a short break before moving onto the next block.</p><p>The next block will start after a 15 second break.</p><b>Remember, the point rewards are the same between blocks","","html-keyboard-response","23","661473","0.0-5.0","female","40","Australia","9298","25984","imgNWTK/square.png","imgNWTK/triangle.png","imgNWTK/square.png","imgNWTK/triangle.png","noninfo","sub","3.10","","","","","","","","","","","","null","",""
"4552","","","bandit-task-exp6","24","687981","0.0-6.0-0.0","female","40","Australia","9298","25984","imgNWTK/square.png","imgNWTK/triangle.png","imgNWTK/square.png","imgNWTK/triangle.png","noninfo","sub","3.10","","16","1","2","0","null","imgNWTK/square.png","imgNWTK/triangle.png","imgNWTK/square.png","NaN","NaN","","",""
"1238","","","bandit-task-exp6","25","711219","0.0-6.0-0.1","female","40","Australia","9298","25984","imgNWTK/square.png","imgNWTK/triangle.png","imgNWTK/square.png","imgNWTK/triangle.png","noninfo","sub","3.10","","17","2","1","0","null","imgNWTK/square.png","imgNWTK/triangle.png","imgNWTK/triangle.png","NaN","NaN","","",""
"1691","","","bandit-task-exp6","26","734839","0.0-6.0-0.2","female","40","Australia","9298","25984","imgNWTK/square.png","imgNWTK/triangle.png","imgNWTK/square.png","imgNWTK/triangle.png","noninfo","sub","3.10","","18","2","2","78","null","imgNWTK/square.png","imgNWTK/triangle.png","imgNWTK/triangle.png","NaN","NaN","","",""
"4216","","","bandit-task-exp6","27","761975","0.0-6.0-0.3","female","40","Australia","9298","25984","imgNWTK/square.png","imgNWTK/triangle.png","imgNWTK/square.png","imgNWTK/triangle.png","noninfo","sub","3.10","","19","1","1","120","null","imgNWTK/triangle.png","imgNWTK/square.png","imgNWTK/square.png","NaN","NaN","","",""
"2667","","","bandit-task-exp6","28","786620","0.0-6.0-0.4","female","40","Australia","9298","25984","imgNWTK/square.png","imgNWTK/triangle.png","imgNWTK/square.png","imgNWTK/triangle.png","noninfo","sub","3.10","","20","1","1","127","null","imgNWTK/triangle.png","imgNWTK/square.png","imgNWTK/square.png","NaN","NaN","","",""
"1295","","","bandit-task-exp6","29","809600","0.0-6.0-0.5","female","40","Australia","9298","25984","imgNWTK/square.png","imgNWTK/triangle.png","imgNWTK/square.png","imgNWTK/triangle.png","noninfo","sub","3.10","","21","1","2","0","null","imgNWTK/triangle.png","imgNWTK/square.png","imgNWTK/square.png","NaN","NaN","","",""
"1423","","","bandit-task-exp6","30","833486","0.0-6.0-0.6","female","40","Australia","9298","25984","imgNWTK/square.png","imgNWTK/triangle.png","imgNWTK/square.png","imgNWTK/triangle.png","noninfo","sub","3.10","","22","1","2","0","null","imgNWTK/triangle.png","imgNWTK/square.png","imgNWTK/square.png","NaN","NaN","","",""
"1281","","","bandit-task-exp6","31","856523","0.0-6.0-0.7","female","40","Australia","9298","25984","imgNWTK/square.png","imgNWTK/triangle.png","imgNWTK/square.png","imgNWTK/triangle.png","noninfo","sub","3.10","","23","2","2","80","null","imgNWTK/triangle.png","imgNWTK/square.png","imgNWTK/triangle.png","NaN","NaN","","",""
"1959","","","bandit-task-exp6","32","880566","0.0-6.0-0.8","female","40","Australia","9298","25984","imgNWTK/square.png","imgNWTK/triangle.png","imgNWTK/square.png","imgNWTK/triangle.png","noninfo","sub","3.10","","24","2","1","0","null","imgNWTK/triangle.png","imgNWTK/square.png","imgNWTK/triangle.png","NaN","NaN","","",""
"1310","","","bandit-task-exp6","33","903670","0.0-6.0-0.9","female","40","Australia","9298","25984","imgNWTK/square.png","imgNWTK/triangle.png","imgNWTK/square.png","imgNWTK/triangle.png","noninfo","sub","3.10","","25","1","2","0","null","imgNWTK/triangle.png","imgNWTK/square.png","imgNWTK/square.png","NaN","NaN","","",""
"2261","","","bandit-task-exp6","34","928235","0.0-6.0-0.10","female","40","Australia","9298","25984","imgNWTK/square.png","imgNWTK/triangle.png","imgNWTK/square.png","imgNWTK/triangle.png","noninfo","sub","3.10","","26","2","2","82","null","imgNWTK/triangle.png","imgNWTK/square.png","imgNWTK/triangle.png","NaN","NaN","","",""
"1780","","","bandit-task-exp6","35","952541","0.0-6.0-0.11","female","40","Australia","9298","25984","imgNWTK/square.png","imgNWTK/triangle.png","imgNWTK/square.png","imgNWTK/triangle.png","noninfo","sub","3.10","","27","1","1","129","null","imgNWTK/square.png","imgNWTK/triangle.png","imgNWTK/square.png","NaN","NaN","","",""
"3433","","","bandit-task-exp6","36","978265","0.0-6.0-0.12","female","40","Australia","9298","25984","imgNWTK/square.png","imgNWTK/triangle.png","imgNWTK/square.png","imgNWTK/triangle.png","noninfo","sub","3.10","","28","1","1","124","null","imgNWTK/triangle.png","imgNWTK/square.png","imgNWTK/square.png","NaN","NaN","","",""
"1566","","","bandit-task-exp6","37","1002448","0.0-6.0-0.13","female","40","Australia","9298","25984","imgNWTK/square.png","imgNWTK/triangle.png","imgNWTK/square.png","imgNWTK/triangle.png","noninfo","sub","3.10","","29","1","1","111","null","imgNWTK/triangle.png","imgNWTK/square.png","imgNWTK/square.png","NaN","NaN","","",""
"1335","","","bandit-task-exp6","38","1026056","0.0-6.0-0.14","female","40","Australia","9298","25984","imgNWTK/square.png","imgNWTK/triangle.png","imgNWTK/square.png","imgNWTK/triangle.png","noninfo","sub","3.10","","30","2","2","73","null","imgNWTK/triangle.png","imgNWTK/square.png","imgNWTK/triangle.png","NaN","NaN","","",""
"null","<p><b> Congratulations, you have finished this block. </b> </p><p>Please take a short break before moving onto the next block.</p><p>The next block will start after a 15 second break.</p><b>Remember, the point rewards are the same between blocks","","html-keyboard-response","39","1041058","0.0-7.0","female","40","Australia","9298","25984","imgNWTK/square.png","imgNWTK/triangle.png","imgNWTK/square.png","imgNWTK/triangle.png","noninfo","sub","3.10","","","","","","","","","","","","null","",""
"2178","","","bandit-task-exp6","40","1065642","0.0-8.0-0.0","female","40","Australia","9298","25984","imgNWTK/square.png","imgNWTK/triangle.png","imgNWTK/square.png","imgNWTK/triangle.png","noninfo","sub","3.10","","31","2","2","80","null","imgNWTK/square.png","imgNWTK/triangle.png","imgNWTK/triangle.png","NaN","NaN","","",""
"1191","","","bandit-task-exp6","41","1088637","0.0-8.0-0.1","female","40","Australia","9298","25984","imgNWTK/square.png","imgNWTK/triangle.png","imgNWTK/square.png","imgNWTK/triangle.png","noninfo","sub","3.10","","32","1","2","0","null","imgNWTK/square.png","imgNWTK/triangle.png","imgNWTK/square.png","NaN","NaN","","",""
"935","","","bandit-task-exp6","42","1111140","0.0-8.0-0.2","female","40","Australia","9298","25984","imgNWTK/square.png","imgNWTK/triangle.png","imgNWTK/square.png","imgNWTK/triangle.png","noninfo","sub","3.10","","33","1","2","0","null","imgNWTK/triangle.png","imgNWTK/square.png","imgNWTK/square.png","NaN","NaN","","",""
"1224","","","bandit-task-exp6","43","1134637","0.0-8.0-0.3","female","40","Australia","9298","25984","imgNWTK/square.png","imgNWTK/triangle.png","imgNWTK/square.png","imgNWTK/triangle.png","noninfo","sub","3.10","","34","2","1","0","null","imgNWTK/triangle.png","imgNWTK/square.png","imgNWTK/triangle.png","NaN","NaN","","",""
"1719","","","bandit-task-exp6","44","1159320","0.0-8.0-0.4","female","40","Australia","9298","25984","imgNWTK/square.png","imgNWTK/triangle.png","imgNWTK/square.png","imgNWTK/triangle.png","noninfo","sub","3.10","","35","2","2","84","null","imgNWTK/square.png","imgNWTK/triangle.png","imgNWTK/triangle.png","NaN","NaN","","",""
"1823","","","bandit-task-exp6","45","1182745","0.0-8.0-0.5","female","40","Australia","9298","25984","imgNWTK/square.png","imgNWTK/triangle.png","imgNWTK/square.png","imgNWTK/triangle.png","noninfo","sub","3.10","","36","1","1","122","null","imgNWTK/triangle.png","imgNWTK/square.png","imgNWTK/square.png","NaN","NaN","","",""
"949","","","bandit-task-exp6","46","1205880","0.0-8.0-0.6","female","40","Australia","9298","25984","imgNWTK/square.png","imgNWTK/triangle.png","imgNWTK/square.png","imgNWTK/triangle.png","noninfo","sub","3.10","","37","1","2","0","null","imgNWTK/triangle.png","imgNWTK/square.png","imgNWTK/square.png","NaN","NaN","","",""
"5306","","","bandit-task-exp6","47","1233144","0.0-8.0-0.7","female","40","Australia","9298","25984","imgNWTK/square.png","imgNWTK/triangle.png","imgNWTK/square.png","imgNWTK/triangle.png","noninfo","sub","3.10","","38","1","2","0","null","imgNWTK/square.png","imgNWTK/triangle.png","imgNWTK/square.png","NaN","NaN","","",""
"1006","","","bandit-task-exp6","48","1256080","0.0-8.0-0.8","female","40","Australia","9298","25984","imgNWTK/square.png","imgNWTK/triangle.png","imgNWTK/square.png","imgNWTK/triangle.png","noninfo","sub","3.10","","39","1","1","127","null","imgNWTK/triangle.png","imgNWTK/square.png","imgNWTK/square.png","NaN","NaN","","",""
"1403","","","bandit-task-exp6","49","1279320","0.0-8.0-0.9","female","40","Australia","9298","25984","imgNWTK/square.png","imgNWTK/triangle.png","imgNWTK/square.png","imgNWTK/triangle.png","noninfo","sub","3.10","","40","1","1","121","null","imgNWTK/triangle.png","imgNWTK/square.png","imgNWTK/square.png","NaN","NaN","","",""
"2694","","","bandit-task-exp6","50","1303947","0.0-8.0-0.10","female","40","Australia","9298","25984","imgNWTK/square.png","imgNWTK/triangle.png","imgNWTK/square.png","imgNWTK/triangle.png","noninfo","sub","3.10","","41","2","1","0","null","imgNWTK/triangle.png","imgNWTK/square.png","imgNWTK/triangle.png","NaN","NaN","","",""
"1254","","","bandit-task-exp6","51","1327025","0.0-8.0-0.11","female","40","Australia","9298","25984","imgNWTK/square.png","imgNWTK/triangle.png","imgNWTK/square.png","imgNWTK/triangle.png","noninfo","sub","3.10","","42","2","2","86","null","imgNWTK/square.png","imgNWTK/triangle.png","imgNWTK/triangle.png","NaN","NaN","","",""
"1762","","","bandit-task-exp6","52","1350571","0.0-8.0-0.12","female","40","Australia","9298","25984","imgNWTK/square.png","imgNWTK/triangle.png","imgNWTK/square.png","imgNWTK/triangle.png","noninfo","sub","3.10","","43","2","2","79","null","imgNWTK/square.png","imgNWTK/triangle.png","imgNWTK/triangle.png","NaN","NaN","","",""
"2028","","","bandit-task-exp6","53","1381389","0.0-8.0-0.13","female","40","Australia","9298","25984","imgNWTK/square.png","imgNWTK/triangle.png","imgNWTK/square.png","imgNWTK/triangle.png","noninfo","sub","3.10","","44","1","1","128","null","imgNWTK/triangle.png","imgNWTK/square.png","imgNWTK/square.png","NaN","NaN","","",""
"1952","","","bandit-task-exp6","54","1405091","0.0-8.0-0.14","female","40","Australia","9298","25984","imgNWTK/square.png","imgNWTK/triangle.png","imgNWTK/square.png","imgNWTK/triangle.png","noninfo","sub","3.10","","45","2","2","83","null","imgNWTK/square.png","imgNWTK/triangle.png","imgNWTK/triangle.png","NaN","NaN","","",""
"null","<p><b> Congratulations, you have finished this block. </b> </p><p>Please take a short break before moving onto the next block.</p><p>The next block will start after a 15 second break.</p><b>Remember, the point rewards are the same between blocks","","html-keyboard-response","55","1420098","0.0-9.0","female","40","Australia","9298","25984","imgNWTK/square.png","imgNWTK/triangle.png","imgNWTK/square.png","imgNWTK/triangle.png","noninfo","sub","3.10","","","","","","","","","","","","null","",""
"33749","","","bandit-task-exp6","56","1476060","0.0-10.0-0.0","female","40","Australia","9298","25984","imgNWTK/square.png","imgNWTK/triangle.png","imgNWTK/square.png","imgNWTK/triangle.png","noninfo","sub","3.10","","46","1","1","122","null","imgNWTK/triangle.png","imgNWTK/square.png","imgNWTK/square.png","50","50","","",""
"11645","","","bandit-task-exp6","57","1511100","0.0-10.0-0.1","female","40","Australia","9298","25984","imgNWTK/square.png","imgNWTK/triangle.png","imgNWTK/square.png","imgNWTK/triangle.png","noninfo","sub","3.10","","47","2","1","0","null","imgNWTK/square.png","imgNWTK/triangle.png","imgNWTK/triangle.png","50","50","","",""
"8586","","","bandit-task-exp6","58","1542165","0.0-10.0-0.2","female","40","Australia","9298","25984","imgNWTK/square.png","imgNWTK/triangle.png","imgNWTK/square.png","imgNWTK/triangle.png","noninfo","sub","3.10","","48","1","2","0","null","imgNWTK/square.png","imgNWTK/triangle.png","imgNWTK/square.png","50","50","","",""
"8442","","","bandit-task-exp6","59","1572605","0.0-10.0-0.3","female","40","Australia","9298","25984","imgNWTK/square.png","imgNWTK/triangle.png","imgNWTK/square.png","imgNWTK/triangle.png","noninfo","sub","3.10","","49","2","1","0","null","imgNWTK/square.png","imgNWTK/triangle.png","imgNWTK/triangle.png","50","50","","",""
"10954","","","bandit-task-exp6","60","1606018","0.0-10.0-0.4","female","40","Australia","9298","25984","imgNWTK/square.png","imgNWTK/triangle.png","imgNWTK/square.png","imgNWTK/triangle.png","noninfo","sub","3.10","","50","1","1","128","null","imgNWTK/triangle.png","imgNWTK/square.png","imgNWTK/square.png","50","50","","",""
"7490","","","bandit-task-exp6","61","1638514","0.0-10.0-0.5","female","40","Australia","9298","25984","imgNWTK/square.png","imgNWTK/triangle.png","imgNWTK/square.png","imgNWTK/triangle.png","noninfo","sub","3.10","","51","1","2","0","null","imgNWTK/triangle.png","imgNWTK/square.png","imgNWTK/square.png","50","50","","",""
"12565","","","bandit-task-exp6","62","1673204","0.0-10.0-0.6","female","40","Australia","9298","25984","imgNWTK/square.png","imgNWTK/triangle.png","imgNWTK/square.png","imgNWTK/triangle.png","noninfo","sub","3.10","","52","2","1","0","null","imgNWTK/square.png","imgNWTK/triangle.png","imgNWTK/triangle.png","50","50","","",""
"7352","","","bandit-task-exp6","63","1702498","0.0-10.0-0.7","female","40","Australia","9298","25984","imgNWTK/square.png","imgNWTK/triangle.png","imgNWTK/square.png","imgNWTK/triangle.png","noninfo","sub","3.10","","53","1","2","0","null","imgNWTK/triangle.png","imgNWTK/square.png","imgNWTK/square.png","50","50","","",""
"7133","","","bandit-task-exp6","64","1732001","0.0-10.0-0.8","female","40","Australia","9298","25984","imgNWTK/square.png","imgNWTK/triangle.png","imgNWTK/square.png","imgNWTK/triangle.png","noninfo","sub","3.10","","54","1","1","111","null","imgNWTK/square.png","imgNWTK/triangle.png","imgNWTK/square.png","75","75","","",""
"7038","","","bandit-task-exp6","65","1760820","0.0-10.0-0.9","female","40","Australia","9298","25984","imgNWTK/square.png","imgNWTK/triangle.png","imgNWTK/square.png","imgNWTK/triangle.png","noninfo","sub","3.10","","55","2","2","78","null","imgNWTK/triangle.png","imgNWTK/square.png","imgNWTK/triangle.png","75","75","","",""
"6615","","","bandit-task-exp6","66","1789284","0.0-10.0-0.10","female","40","Australia","9298","25984","imgNWTK/square.png","imgNWTK/triangle.png","imgNWTK/square.png","imgNWTK/triangle.png","noninfo","sub","3.10","","56","1","1","130","null","imgNWTK/square.png","imgNWTK/triangle.png","imgNWTK/square.png","75","75","","",""
"10469","","","bandit-task-exp6","67","1821729","0.0-10.0-0.11","female","40","Australia","9298","25984","imgNWTK/square.png","imgNWTK/triangle.png","imgNWTK/square.png","imgNWTK/triangle.png","noninfo","sub","3.10","","57","2","1","0","null","imgNWTK/triangle.png","imgNWTK/square.png","imgNWTK/triangle.png","75","75","","",""
"8321","","","bandit-task-exp6","68","1852286","0.0-10.0-0.12","female","40","Australia","9298","25984","imgNWTK/square.png","imgNWTK/triangle.png","imgNWTK/square.png","imgNWTK/triangle.png","noninfo","sub","3.10","","58","1","1","121","null","imgNWTK/triangle.png","imgNWTK/square.png","imgNWTK/square.png","50","50","","",""
"8954","","","bandit-task-exp6","69","1882947","0.0-10.0-0.13","female","40","Australia","9298","25984","imgNWTK/square.png","imgNWTK/triangle.png","imgNWTK/square.png","imgNWTK/triangle.png","noninfo","sub","3.10","","59","1","2","0","null","imgNWTK/triangle.png","imgNWTK/square.png","imgNWTK/square.png","50","50","","",""
"7286","","","bandit-task-exp6","70","1912550","0.0-10.0-0.14","female","40","Australia","9298","25984","imgNWTK/square.png","imgNWTK/triangle.png","imgNWTK/square.png","imgNWTK/triangle.png","noninfo","sub","3.10","","60","1","1","113","null","imgNWTK/square.png","imgNWTK/triangle.png","imgNWTK/square.png","50","50","","",""
"6712","<p> Congratulations, you have finished the main part of the experiment. </p><p>Before you finish, we have a few short questions about the options and outcomes you saw in the task.</p>","0","html-button-response","71","1919265","0.0-11.0","female","40","Australia","9298","25984","imgNWTK/square.png","imgNWTK/triangle.png","imgNWTK/square.png","imgNWTK/triangle.png","noninfo","sub","3.10","","","","","","","","","","","","","",""
"17371","<p><b>Now, imagine that you clicked on the below button for another 10 trials (this includes <i> BOTH WIN and NO-WIN trials</i>).</p> <img src= 'imgNWTK/triangle.png'></img></br></br> <p><b>Please type the reward (number of points) you would expect to receive on every trial.</br> Click start to begin.</p>","0","html-button-response","72","1936638","0.0-12.0","female","40","Australia","9298","25984","imgNWTK/square.png","imgNWTK/triangle.png","imgNWTK/square.png","imgNWTK/triangle.png","noninfo","sub","3.10","","","","","","","","","","","","","",""
"20046.899999976158","","","survey-number","73","1956692","0.0-13.0-0.0","female","40","Australia","9298","25984","imgNWTK/square.png","imgNWTK/triangle.png","imgNWTK/square.png","imgNWTK/triangle.png","noninfo","sub","3.10","{""undefined"":""120""}","","","","","","","","","","","","imgNWTK/triangle.png",""
"12931.800000011921","","","survey-number","74","1969630","0.0-13.0-0.1","female","40","Australia","9298","25984","imgNWTK/square.png","imgNWTK/triangle.png","imgNWTK/square.png","imgNWTK/triangle.png","noninfo","sub","3.10","{""undefined"":""113""}","","","","","","","","","","","","imgNWTK/triangle.png",""
"5258","","","survey-number","75","1974895","0.0-13.0-0.2","female","40","Australia","9298","25984","imgNWTK/square.png","imgNWTK/triangle.png","imgNWTK/square.png","imgNWTK/triangle.png","noninfo","sub","3.10","{""undefined"":""110""}","","","","","","","","","","","","imgNWTK/triangle.png",""
"4243.100000023842","","","survey-number","76","1979143","0.0-13.0-0.3","female","40","Australia","9298","25984","imgNWTK/square.png","imgNWTK/triangle.png","imgNWTK/square.png","imgNWTK/triangle.png","noninfo","sub","3.10","{""undefined"":""140""}","","","","","","","","","","","","imgNWTK/triangle.png",""
"2881.199999988079","","","survey-number","77","1982030","0.0-13.0-0.4","female","40","Australia","9298","25984","imgNWTK/square.png","imgNWTK/triangle.png","imgNWTK/square.png","imgNWTK/triangle.png","noninfo","sub","3.10","{""undefined"":""150""}","","","","","","","","","","","","imgNWTK/triangle.png",""
"2497.899999976158","","","survey-number","78","1984534","0.0-13.0-0.5","female","40","Australia","9298","25984","imgNWTK/square.png","imgNWTK/triangle.png","imgNWTK/square.png","imgNWTK/triangle.png","noninfo","sub","3.10","{""undefined"":""120""}","","","","","","","","","","","","imgNWTK/triangle.png",""
"3798","","","survey-number","79","1988337","0.0-13.0-0.6","female","40","Australia","9298","25984","imgNWTK/square.png","imgNWTK/triangle.png","imgNWTK/square.png","imgNWTK/triangle.png","noninfo","sub","3.10","{""undefined"":""135""}","","","","","","","","","","","","imgNWTK/triangle.png",""
"5925.799999952316","","","survey-number","80","1994268","0.0-13.0-0.7","female","40","Australia","9298","25984","imgNWTK/square.png","imgNWTK/triangle.png","imgNWTK/square.png","imgNWTK/triangle.png","noninfo","sub","3.10","{""undefined"":""157""}","","","","","","","","","","","","imgNWTK/triangle.png",""
"3701","","","survey-number","81","1997975","0.0-13.0-0.8","female","40","Australia","9298","25984","imgNWTK/square.png","imgNWTK/triangle.png","imgNWTK/square.png","imgNWTK/triangle.png","noninfo","sub","3.10","{""undefined"":""155""}","","","","","","","","","","","","imgNWTK/triangle.png",""
"5170.599999964237","","","survey-number","82","2003151","0.0-13.0-0.9","female","40","Australia","9298","25984","imgNWTK/square.png","imgNWTK/triangle.png","imgNWTK/square.png","imgNWTK/triangle.png","noninfo","sub","3.10","{""undefined"":""180""}","","","","","","","","","","","","imgNWTK/triangle.png",""
"20861","<p><b>Imagine that you clicked on the below button for another 10 trials (this includes <i> both WIN and NO-WIN trials</i>).</p> <img src= 'imgNWTK/square.png'></img></br></br> <p><b>Please type the reward (number of points) you would expect to receive on every trial.</br> Click start to begin.</p>","0","html-button-response","83","2024013","0.0-14.0","female","40","Australia","9298","25984","imgNWTK/square.png","imgNWTK/triangle.png","imgNWTK/square.png","imgNWTK/triangle.png","noninfo","sub","3.10","","","","","","","","","","","","","",""
"8425.600000023842","","","survey-number","84","2032444","0.0-15.0-0.0","female","40","Australia","9298","25984","imgNWTK/square.png","imgNWTK/triangle.png","imgNWTK/square.png","imgNWTK/triangle.png","noninfo","sub","3.10","{""undefined"":""150""}","","","","","","","","","","","","imgNWTK/square.png",""
"3057.300000011921","","","survey-number","85","2035507","0.0-15.0-0.1","female","40","Australia","9298","25984","imgNWTK/square.png","imgNWTK/triangle.png","imgNWTK/square.png","imgNWTK/triangle.png","noninfo","sub","3.10","{""undefined"":""160""}","","","","","","","","","","","","imgNWTK/square.png",""
"2535.5","","","survey-number","86","2038047","0.0-15.0-0.2","female","40","Australia","9298","25984","imgNWTK/square.png","imgNWTK/triangle.png","imgNWTK/square.png","imgNWTK/triangle.png","noninfo","sub","3.10","{""undefined"":""170""}","","","","","","","","","","","","imgNWTK/square.png",""
"3235.599999964237","","","survey-number","87","2041288","0.0-15.0-0.3","female","40","Australia","9298","25984","imgNWTK/square.png","imgNWTK/triangle.png","imgNWTK/square.png","imgNWTK/triangle.png","noninfo","sub","3.10","{""undefined"":""200""}","","","","","","","","","","","","imgNWTK/square.png",""
"4063","","","survey-number","88","2045356","0.0-15.0-0.4","female","40","Australia","9298","25984","imgNWTK/square.png","imgNWTK/triangle.png","imgNWTK/square.png","imgNWTK/triangle.png","noninfo","sub","3.10","{""undefined"":""140""}","","","","","","","","","","","","imgNWTK/square.png",""
"2964.199999988079","","","survey-number","89","2048325","0.0-15.0-0.5","female","40","Australia","9298","25984","imgNWTK/square.png","imgNWTK/triangle.png","imgNWTK/square.png","imgNWTK/triangle.png","noninfo","sub","3.10","{""undefined"":""150""}","","","","","","","","","","","","imgNWTK/square.png",""
"3081.5","","","survey-number","90","2051411","0.0-15.0-0.6","female","40","Australia","9298","25984","imgNWTK/square.png","imgNWTK/triangle.png","imgNWTK/square.png","imgNWTK/triangle.png","noninfo","sub","3.10","{""undefined"":""170""}","","","","","","","","","","","","imgNWTK/square.png",""
"2992.600000023842","","","survey-number","91","2054409","0.0-15.0-0.7","female","40","Australia","9298","25984","imgNWTK/square.png","imgNWTK/triangle.png","imgNWTK/square.png","imgNWTK/triangle.png","noninfo","sub","3.10","{""undefined"":""180""}","","","","","","","","","","","","imgNWTK/square.png",""
"4080.399999976158","","","survey-number","92","2058494","0.0-15.0-0.8","female","40","Australia","9298","25984","imgNWTK/square.png","imgNWTK/triangle.png","imgNWTK/square.png","imgNWTK/triangle.png","noninfo","sub","3.10","{""undefined"":""190""}","","","","","","","","","","","","imgNWTK/square.png",""
"4680.899999976158","","","survey-number","93","2063181","0.0-15.0-0.9","female","40","Australia","9298","25984","imgNWTK/square.png","imgNWTK/triangle.png","imgNWTK/square.png","imgNWTK/triangle.png","noninfo","sub","3.10","{""undefined"":""150""}","","","","","","","","","","","","imgNWTK/square.png",""
"59594.09999996424","","","survey-number","94","2122786","0.0-16.0","female","40","Australia","9298","25984","imgNWTK/square.png","imgNWTK/triangle.png","imgNWTK/square.png","imgNWTK/triangle.png","noninfo","sub","3.10","{""undefined"":""1450""}","","","","","","","","","","","","","imgNWTK/square.png"
"22735.100000023842","","","survey-number","95","2145528","0.0-17.0","female","40","Australia","9298","25984","imgNWTK/square.png","imgNWTK/triangle.png","imgNWTK/square.png","imgNWTK/triangle.png","noninfo","sub","3.10","{""undefined"":""1500""}","","","","","","","","","","","","","imgNWTK/triangle.png"
"123693","<p style=""text-align:left;"">Great! We are almost at the end of the study... (Please do not close the browser window yet.)</p><p> Your final points balance is 3105, which equals to a bonus payment of $3.10. The payment can be collected from MAT721; please email amy.x.li@unsw.edu.au at least 24 hours prior to collection so that this is ready for you.</p><p style=""text-align:left;"">To view the debriefing form, please click <a href=""./imgNWTK/debrief_3205.pdf"" target=""_blank"">here</a> to download a copy.</p><p style=""text-align:left;"">Then, <b>please click the below button</b> to confirm that you have received your debrief and to complete the study. Upon clicking ""Finish!"", your SONA credit will be automatically assigned.</p>","0","html-button-response","96","2269229","0.0-18.0","female","40","Australia","9298","25984","imgNWTK/square.png","imgNWTK/triangle.png","imgNWTK/square.png","imgNWTK/triangle.png","noninfo","sub","3.10","","","","","","","","","","","","","",""
