"rt","stimulus","button_pressed","trial_type","trial_index","time_elapsed","internal_node_id","gender","age","language","PID","sona_id","subStim","optStim","stim1","stim2","infoCond","optimCond","bonus","banditTrial","choice","cue","feedback","estimateData","leftOption","rightOption","choiceName","leftInput","rightInput","key_press","responses","postQ","singleEst"
"1251","<p>Thank you for signing up to participate in SONA Study 465! <br> During this study, please focus on the experiment and refrain from activities such as:</p>- <b>Switching to other tabs on your browser (this will be monitored via the experiment)</br> - Using your mobile phone/cell phone</br> - Communicating with others</br></br></b><p>This way, you are helping to provide data that is useful for psychological research. We thank you for your cooperation!</p>","0","html-button-response","0","1253","0.0-0.0","female","18","Australia","31993","25345","imgNWTK/KeepItSecret.jpg","imgNWTK/FindOutNow.jpg","imgNWTK/KeepItSecret.jpg","imgNWTK/FindOutNow.jpg","info","sub","2.97","","","","","","","","","","","","","",""
"981","<p>Welcome to the experiment!</p><p>You will now read some instructions about the task. Press the 'Next' button to continue. </p>","0","html-button-response","1","2236","0.0-1.0","female","18","Australia","31993","25345","imgNWTK/KeepItSecret.jpg","imgNWTK/FindOutNow.jpg","imgNWTK/KeepItSecret.jpg","imgNWTK/FindOutNow.jpg","info","sub","2.97","","","","","","","","","","","","","",""
"2405","","","bandit-task-exp6","2","8126","0.0-2.0-0.0","female","18","Australia","31993","25345","imgNWTK/KeepItSecret.jpg","imgNWTK/FindOutNow.jpg","imgNWTK/KeepItSecret.jpg","imgNWTK/FindOutNow.jpg","info","sub","2.97","1","2","2","73","null","imgNWTK/FindOutNow.jpg","imgNWTK/KeepItSecret.jpg","imgNWTK/FindOutNow.jpg","NaN","NaN","","","",""
"1437","","","bandit-task-exp6","3","12307","0.0-2.0-0.1","female","18","Australia","31993","25345","imgNWTK/KeepItSecret.jpg","imgNWTK/FindOutNow.jpg","imgNWTK/KeepItSecret.jpg","imgNWTK/FindOutNow.jpg","info","sub","2.97","2","2","2","77","null","imgNWTK/FindOutNow.jpg","imgNWTK/KeepItSecret.jpg","imgNWTK/FindOutNow.jpg","NaN","NaN","","","",""
"623","","","bandit-task-exp6","4","15982","0.0-2.0-0.2","female","18","Australia","31993","25345","imgNWTK/KeepItSecret.jpg","imgNWTK/FindOutNow.jpg","imgNWTK/KeepItSecret.jpg","imgNWTK/FindOutNow.jpg","info","sub","2.97","3","1","1","118","null","imgNWTK/KeepItSecret.jpg","imgNWTK/FindOutNow.jpg","imgNWTK/KeepItSecret.jpg","NaN","NaN","","","",""
"729","","","bandit-task-exp6","5","19455","0.0-2.0-0.3","female","18","Australia","31993","25345","imgNWTK/KeepItSecret.jpg","imgNWTK/FindOutNow.jpg","imgNWTK/KeepItSecret.jpg","imgNWTK/FindOutNow.jpg","info","sub","2.97","4","1","2","0","null","imgNWTK/KeepItSecret.jpg","imgNWTK/FindOutNow.jpg","imgNWTK/KeepItSecret.jpg","NaN","NaN","","","",""
"655","","","bandit-task-exp6","6","22534","0.0-2.0-0.4","female","18","Australia","31993","25345","imgNWTK/KeepItSecret.jpg","imgNWTK/FindOutNow.jpg","imgNWTK/KeepItSecret.jpg","imgNWTK/FindOutNow.jpg","info","sub","2.97","5","1","1","122","null","imgNWTK/FindOutNow.jpg","imgNWTK/KeepItSecret.jpg","imgNWTK/KeepItSecret.jpg","NaN","NaN","","","",""
"1681","","","bandit-task-exp6","7","26922","0.0-2.0-0.5","female","18","Australia","31993","25345","imgNWTK/KeepItSecret.jpg","imgNWTK/FindOutNow.jpg","imgNWTK/KeepItSecret.jpg","imgNWTK/FindOutNow.jpg","info","sub","2.97","6","2","2","76","null","imgNWTK/KeepItSecret.jpg","imgNWTK/FindOutNow.jpg","imgNWTK/FindOutNow.jpg","NaN","NaN","","","",""
"1192","","","bandit-task-exp6","8","30521","0.0-2.0-0.6","female","18","Australia","31993","25345","imgNWTK/KeepItSecret.jpg","imgNWTK/FindOutNow.jpg","imgNWTK/KeepItSecret.jpg","imgNWTK/FindOutNow.jpg","info","sub","2.97","7","2","2","83","null","imgNWTK/KeepItSecret.jpg","imgNWTK/FindOutNow.jpg","imgNWTK/FindOutNow.jpg","NaN","NaN","","","",""
"1386","","","bandit-task-exp6","9","34326","0.0-2.0-0.7","female","18","Australia","31993","25345","imgNWTK/KeepItSecret.jpg","imgNWTK/FindOutNow.jpg","imgNWTK/KeepItSecret.jpg","imgNWTK/FindOutNow.jpg","info","sub","2.97","8","2","2","73","null","imgNWTK/FindOutNow.jpg","imgNWTK/KeepItSecret.jpg","imgNWTK/FindOutNow.jpg","NaN","NaN","","","",""
"727","","","bandit-task-exp6","10","37542","0.0-2.0-0.8","female","18","Australia","31993","25345","imgNWTK/KeepItSecret.jpg","imgNWTK/FindOutNow.jpg","imgNWTK/KeepItSecret.jpg","imgNWTK/FindOutNow.jpg","info","sub","2.97","9","2","2","84","null","imgNWTK/FindOutNow.jpg","imgNWTK/KeepItSecret.jpg","imgNWTK/FindOutNow.jpg","NaN","NaN","","","",""
"1408","","","bandit-task-exp6","11","41360","0.0-2.0-0.9","female","18","Australia","31993","25345","imgNWTK/KeepItSecret.jpg","imgNWTK/FindOutNow.jpg","imgNWTK/KeepItSecret.jpg","imgNWTK/FindOutNow.jpg","info","sub","2.97","10","2","2","81","null","imgNWTK/KeepItSecret.jpg","imgNWTK/FindOutNow.jpg","imgNWTK/FindOutNow.jpg","NaN","NaN","","","",""
"1790","","","bandit-task-exp6","12","46085","0.0-2.0-0.10","female","18","Australia","31993","25345","imgNWTK/KeepItSecret.jpg","imgNWTK/FindOutNow.jpg","imgNWTK/KeepItSecret.jpg","imgNWTK/FindOutNow.jpg","info","sub","2.97","11","2","1","0","null","imgNWTK/FindOutNow.jpg","imgNWTK/KeepItSecret.jpg","imgNWTK/FindOutNow.jpg","NaN","NaN","","","",""
"747","","","bandit-task-exp6","13","49265","0.0-2.0-0.11","female","18","Australia","31993","25345","imgNWTK/KeepItSecret.jpg","imgNWTK/FindOutNow.jpg","imgNWTK/KeepItSecret.jpg","imgNWTK/FindOutNow.jpg","info","sub","2.97","12","2","2","83","null","imgNWTK/FindOutNow.jpg","imgNWTK/KeepItSecret.jpg","imgNWTK/FindOutNow.jpg","NaN","NaN","","","",""
"510","","","bandit-task-exp6","14","52945","0.0-2.0-0.12","female","18","Australia","31993","25345","imgNWTK/KeepItSecret.jpg","imgNWTK/FindOutNow.jpg","imgNWTK/KeepItSecret.jpg","imgNWTK/FindOutNow.jpg","info","sub","2.97","13","1","1","111","null","imgNWTK/KeepItSecret.jpg","imgNWTK/FindOutNow.jpg","imgNWTK/KeepItSecret.jpg","NaN","NaN","","","",""
"428","","","bandit-task-exp6","15","55491","0.0-2.0-0.13","female","18","Australia","31993","25345","imgNWTK/KeepItSecret.jpg","imgNWTK/FindOutNow.jpg","imgNWTK/KeepItSecret.jpg","imgNWTK/FindOutNow.jpg","info","sub","2.97","14","1","2","0","null","imgNWTK/KeepItSecret.jpg","imgNWTK/FindOutNow.jpg","imgNWTK/KeepItSecret.jpg","NaN","NaN","","","",""
"570","","","bandit-task-exp6","16","58435","0.0-2.0-0.14","female","18","Australia","31993","25345","imgNWTK/KeepItSecret.jpg","imgNWTK/FindOutNow.jpg","imgNWTK/KeepItSecret.jpg","imgNWTK/FindOutNow.jpg","info","sub","2.97","15","1","1","126","null","imgNWTK/KeepItSecret.jpg","imgNWTK/FindOutNow.jpg","imgNWTK/KeepItSecret.jpg","NaN","NaN","","","",""
"null","<p><b> Congratulations, you have finished this block. </b> </p><p>Please take a short break before moving onto the next block.</p><p>The next block will start after a 15 second break.</p><b>Remember, the point rewards are the same between blocks","","html-keyboard-response","17","73452","0.0-3.0","female","18","Australia","31993","25345","imgNWTK/KeepItSecret.jpg","imgNWTK/FindOutNow.jpg","imgNWTK/KeepItSecret.jpg","imgNWTK/FindOutNow.jpg","info","sub","2.97","","","","","","","","","","","null","","",""
"828","","","bandit-task-exp6","18","76678","0.0-4.0-0.0","female","18","Australia","31993","25345","imgNWTK/KeepItSecret.jpg","imgNWTK/FindOutNow.jpg","imgNWTK/KeepItSecret.jpg","imgNWTK/FindOutNow.jpg","info","sub","2.97","16","1","1","116","null","imgNWTK/KeepItSecret.jpg","imgNWTK/FindOutNow.jpg","imgNWTK/KeepItSecret.jpg","NaN","NaN","","","",""
"647","","","bandit-task-exp6","19","79428","0.0-4.0-0.1","female","18","Australia","31993","25345","imgNWTK/KeepItSecret.jpg","imgNWTK/FindOutNow.jpg","imgNWTK/KeepItSecret.jpg","imgNWTK/FindOutNow.jpg","info","sub","2.97","17","1","2","0","null","imgNWTK/FindOutNow.jpg","imgNWTK/KeepItSecret.jpg","imgNWTK/KeepItSecret.jpg","NaN","NaN","","","",""
"455","","","bandit-task-exp6","20","82006","0.0-4.0-0.2","female","18","Australia","31993","25345","imgNWTK/KeepItSecret.jpg","imgNWTK/FindOutNow.jpg","imgNWTK/KeepItSecret.jpg","imgNWTK/FindOutNow.jpg","info","sub","2.97","18","2","1","0","null","imgNWTK/FindOutNow.jpg","imgNWTK/KeepItSecret.jpg","imgNWTK/FindOutNow.jpg","NaN","NaN","","","",""
"552","","","bandit-task-exp6","21","85031","0.0-4.0-0.3","female","18","Australia","31993","25345","imgNWTK/KeepItSecret.jpg","imgNWTK/FindOutNow.jpg","imgNWTK/KeepItSecret.jpg","imgNWTK/FindOutNow.jpg","info","sub","2.97","19","2","2","84","null","imgNWTK/FindOutNow.jpg","imgNWTK/KeepItSecret.jpg","imgNWTK/FindOutNow.jpg","NaN","NaN","","","",""
"389","","","bandit-task-exp6","22","88341","0.0-4.0-0.4","female","18","Australia","31993","25345","imgNWTK/KeepItSecret.jpg","imgNWTK/FindOutNow.jpg","imgNWTK/KeepItSecret.jpg","imgNWTK/FindOutNow.jpg","info","sub","2.97","20","1","1","115","null","imgNWTK/KeepItSecret.jpg","imgNWTK/FindOutNow.jpg","imgNWTK/KeepItSecret.jpg","NaN","NaN","","","",""
"432","","","bandit-task-exp6","23","91244","0.0-4.0-0.5","female","18","Australia","31993","25345","imgNWTK/KeepItSecret.jpg","imgNWTK/FindOutNow.jpg","imgNWTK/KeepItSecret.jpg","imgNWTK/FindOutNow.jpg","info","sub","2.97","21","1","1","126","null","imgNWTK/KeepItSecret.jpg","imgNWTK/FindOutNow.jpg","imgNWTK/KeepItSecret.jpg","NaN","NaN","","","",""
"507","","","bandit-task-exp6","24","93812","0.0-4.0-0.6","female","18","Australia","31993","25345","imgNWTK/KeepItSecret.jpg","imgNWTK/FindOutNow.jpg","imgNWTK/KeepItSecret.jpg","imgNWTK/FindOutNow.jpg","info","sub","2.97","22","1","1","115","null","imgNWTK/KeepItSecret.jpg","imgNWTK/FindOutNow.jpg","imgNWTK/KeepItSecret.jpg","NaN","NaN","","","",""
"1052","","","bandit-task-exp6","25","96885","0.0-4.0-0.7","female","18","Australia","31993","25345","imgNWTK/KeepItSecret.jpg","imgNWTK/FindOutNow.jpg","imgNWTK/KeepItSecret.jpg","imgNWTK/FindOutNow.jpg","info","sub","2.97","23","2","1","0","null","imgNWTK/FindOutNow.jpg","imgNWTK/KeepItSecret.jpg","imgNWTK/FindOutNow.jpg","NaN","NaN","","","",""
"583","","","bandit-task-exp6","26","100000","0.0-4.0-0.8","female","18","Australia","31993","25345","imgNWTK/KeepItSecret.jpg","imgNWTK/FindOutNow.jpg","imgNWTK/KeepItSecret.jpg","imgNWTK/FindOutNow.jpg","info","sub","2.97","24","2","2","77","null","imgNWTK/FindOutNow.jpg","imgNWTK/KeepItSecret.jpg","imgNWTK/FindOutNow.jpg","NaN","NaN","","","",""
"495","","","bandit-task-exp6","27","102549","0.0-4.0-0.9","female","18","Australia","31993","25345","imgNWTK/KeepItSecret.jpg","imgNWTK/FindOutNow.jpg","imgNWTK/KeepItSecret.jpg","imgNWTK/FindOutNow.jpg","info","sub","2.97","25","2","1","0","null","imgNWTK/FindOutNow.jpg","imgNWTK/KeepItSecret.jpg","imgNWTK/FindOutNow.jpg","NaN","NaN","","","",""
"854","","","bandit-task-exp6","28","105519","0.0-4.0-0.10","female","18","Australia","31993","25345","imgNWTK/KeepItSecret.jpg","imgNWTK/FindOutNow.jpg","imgNWTK/KeepItSecret.jpg","imgNWTK/FindOutNow.jpg","info","sub","2.97","26","2","1","0","null","imgNWTK/FindOutNow.jpg","imgNWTK/KeepItSecret.jpg","imgNWTK/FindOutNow.jpg","NaN","NaN","","","",""
"1517","","","bandit-task-exp6","29","110306","0.0-4.0-0.11","female","18","Australia","31993","25345","imgNWTK/KeepItSecret.jpg","imgNWTK/FindOutNow.jpg","imgNWTK/KeepItSecret.jpg","imgNWTK/FindOutNow.jpg","info","sub","2.97","27","1","2","0","null","imgNWTK/KeepItSecret.jpg","imgNWTK/FindOutNow.jpg","imgNWTK/KeepItSecret.jpg","NaN","NaN","","","",""
"512","","","bandit-task-exp6","30","112835","0.0-4.0-0.12","female","18","Australia","31993","25345","imgNWTK/KeepItSecret.jpg","imgNWTK/FindOutNow.jpg","imgNWTK/KeepItSecret.jpg","imgNWTK/FindOutNow.jpg","info","sub","2.97","28","1","1","116","null","imgNWTK/KeepItSecret.jpg","imgNWTK/FindOutNow.jpg","imgNWTK/KeepItSecret.jpg","NaN","NaN","","","",""
"4065","","","bandit-task-exp6","31","119527","0.0-4.0-0.13","female","18","Australia","31993","25345","imgNWTK/KeepItSecret.jpg","imgNWTK/FindOutNow.jpg","imgNWTK/KeepItSecret.jpg","imgNWTK/FindOutNow.jpg","info","sub","2.97","29","1","2","0","null","imgNWTK/KeepItSecret.jpg","imgNWTK/FindOutNow.jpg","imgNWTK/KeepItSecret.jpg","NaN","NaN","","","",""
"1257","","","bandit-task-exp6","32","127256","0.0-4.0-0.14","female","18","Australia","31993","25345","imgNWTK/KeepItSecret.jpg","imgNWTK/FindOutNow.jpg","imgNWTK/KeepItSecret.jpg","imgNWTK/FindOutNow.jpg","info","sub","2.97","30","1","2","0","null","imgNWTK/KeepItSecret.jpg","imgNWTK/FindOutNow.jpg","imgNWTK/KeepItSecret.jpg","NaN","NaN","","","",""
"null","<p><b> Congratulations, you have finished this block. </b> </p><p>Please take a short break before moving onto the next block.</p><p>The next block will start after a 15 second break.</p><b>Remember, the point rewards are the same between blocks","","html-keyboard-response","33","142259","0.0-5.0","female","18","Australia","31993","25345","imgNWTK/KeepItSecret.jpg","imgNWTK/FindOutNow.jpg","imgNWTK/KeepItSecret.jpg","imgNWTK/FindOutNow.jpg","info","sub","2.97","","","","","","","","","","","null","","",""
"10617","","","bandit-task-exp6","34","157720","0.0-6.0-0.0","female","18","Australia","31993","25345","imgNWTK/KeepItSecret.jpg","imgNWTK/FindOutNow.jpg","imgNWTK/KeepItSecret.jpg","imgNWTK/FindOutNow.jpg","info","sub","2.97","31","1","1","128","null","imgNWTK/KeepItSecret.jpg","imgNWTK/FindOutNow.jpg","imgNWTK/KeepItSecret.jpg","NaN","NaN","","","",""
"757","","","bandit-task-exp6","35","161110","0.0-6.0-0.1","female","18","Australia","31993","25345","imgNWTK/KeepItSecret.jpg","imgNWTK/FindOutNow.jpg","imgNWTK/KeepItSecret.jpg","imgNWTK/FindOutNow.jpg","info","sub","2.97","32","2","2","86","null","imgNWTK/KeepItSecret.jpg","imgNWTK/FindOutNow.jpg","imgNWTK/FindOutNow.jpg","NaN","NaN","","","",""
"825","","","bandit-task-exp6","36","164538","0.0-6.0-0.2","female","18","Australia","31993","25345","imgNWTK/KeepItSecret.jpg","imgNWTK/FindOutNow.jpg","imgNWTK/KeepItSecret.jpg","imgNWTK/FindOutNow.jpg","info","sub","2.97","33","1","2","0","null","imgNWTK/KeepItSecret.jpg","imgNWTK/FindOutNow.jpg","imgNWTK/KeepItSecret.jpg","NaN","NaN","","","",""
"563","","","bandit-task-exp6","37","167534","0.0-6.0-0.3","female","18","Australia","31993","25345","imgNWTK/KeepItSecret.jpg","imgNWTK/FindOutNow.jpg","imgNWTK/KeepItSecret.jpg","imgNWTK/FindOutNow.jpg","info","sub","2.97","34","1","1","129","null","imgNWTK/FindOutNow.jpg","imgNWTK/KeepItSecret.jpg","imgNWTK/KeepItSecret.jpg","NaN","NaN","","","",""
"1157","","","bandit-task-exp6","38","170904","0.0-6.0-0.4","female","18","Australia","31993","25345","imgNWTK/KeepItSecret.jpg","imgNWTK/FindOutNow.jpg","imgNWTK/KeepItSecret.jpg","imgNWTK/FindOutNow.jpg","info","sub","2.97","35","2","1","0","null","imgNWTK/KeepItSecret.jpg","imgNWTK/FindOutNow.jpg","imgNWTK/FindOutNow.jpg","NaN","NaN","","","",""
"750","","","bandit-task-exp6","39","174019","0.0-6.0-0.5","female","18","Australia","31993","25345","imgNWTK/KeepItSecret.jpg","imgNWTK/FindOutNow.jpg","imgNWTK/KeepItSecret.jpg","imgNWTK/FindOutNow.jpg","info","sub","2.97","36","2","1","0","null","imgNWTK/KeepItSecret.jpg","imgNWTK/FindOutNow.jpg","imgNWTK/FindOutNow.jpg","NaN","NaN","","","",""
"688","","","bandit-task-exp6","40","177249","0.0-6.0-0.6","female","18","Australia","31993","25345","imgNWTK/KeepItSecret.jpg","imgNWTK/FindOutNow.jpg","imgNWTK/KeepItSecret.jpg","imgNWTK/FindOutNow.jpg","info","sub","2.97","37","1","1","123","null","imgNWTK/KeepItSecret.jpg","imgNWTK/FindOutNow.jpg","imgNWTK/KeepItSecret.jpg","NaN","NaN","","","",""
"1207","","","bandit-task-exp6","41","180750","0.0-6.0-0.7","female","18","Australia","31993","25345","imgNWTK/KeepItSecret.jpg","imgNWTK/FindOutNow.jpg","imgNWTK/KeepItSecret.jpg","imgNWTK/FindOutNow.jpg","info","sub","2.97","38","2","2","74","null","imgNWTK/KeepItSecret.jpg","imgNWTK/FindOutNow.jpg","imgNWTK/FindOutNow.jpg","NaN","NaN","","","",""
"1459","","","bandit-task-exp6","42","184701","0.0-6.0-0.8","female","18","Australia","31993","25345","imgNWTK/KeepItSecret.jpg","imgNWTK/FindOutNow.jpg","imgNWTK/KeepItSecret.jpg","imgNWTK/FindOutNow.jpg","info","sub","2.97","39","2","1","0","null","imgNWTK/FindOutNow.jpg","imgNWTK/KeepItSecret.jpg","imgNWTK/FindOutNow.jpg","NaN","NaN","","","",""
"1648","","","bandit-task-exp6","43","189347","0.0-6.0-0.9","female","18","Australia","31993","25345","imgNWTK/KeepItSecret.jpg","imgNWTK/FindOutNow.jpg","imgNWTK/KeepItSecret.jpg","imgNWTK/FindOutNow.jpg","info","sub","2.97","40","1","1","128","null","imgNWTK/KeepItSecret.jpg","imgNWTK/FindOutNow.jpg","imgNWTK/KeepItSecret.jpg","NaN","NaN","","","",""
"1258","","","bandit-task-exp6","44","193574","0.0-6.0-0.10","female","18","Australia","31993","25345","imgNWTK/KeepItSecret.jpg","imgNWTK/FindOutNow.jpg","imgNWTK/KeepItSecret.jpg","imgNWTK/FindOutNow.jpg","info","sub","2.97","41","2","1","0","null","imgNWTK/KeepItSecret.jpg","imgNWTK/FindOutNow.jpg","imgNWTK/FindOutNow.jpg","NaN","NaN","","","",""
"791","","","bandit-task-exp6","45","197290","0.0-6.0-0.11","female","18","Australia","31993","25345","imgNWTK/KeepItSecret.jpg","imgNWTK/FindOutNow.jpg","imgNWTK/KeepItSecret.jpg","imgNWTK/FindOutNow.jpg","info","sub","2.97","42","1","2","0","null","imgNWTK/FindOutNow.jpg","imgNWTK/KeepItSecret.jpg","imgNWTK/KeepItSecret.jpg","NaN","NaN","","","",""
"995","","","bandit-task-exp6","46","200942","0.0-6.0-0.12","female","18","Australia","31993","25345","imgNWTK/KeepItSecret.jpg","imgNWTK/FindOutNow.jpg","imgNWTK/KeepItSecret.jpg","imgNWTK/FindOutNow.jpg","info","sub","2.97","43","2","2","88","null","imgNWTK/FindOutNow.jpg","imgNWTK/KeepItSecret.jpg","imgNWTK/FindOutNow.jpg","NaN","NaN","","","",""
"1035","","","bandit-task-exp6","47","205388","0.0-6.0-0.13","female","18","Australia","31993","25345","imgNWTK/KeepItSecret.jpg","imgNWTK/FindOutNow.jpg","imgNWTK/KeepItSecret.jpg","imgNWTK/FindOutNow.jpg","info","sub","2.97","44","2","1","0","null","imgNWTK/FindOutNow.jpg","imgNWTK/KeepItSecret.jpg","imgNWTK/FindOutNow.jpg","NaN","NaN","","","",""
"1165","","","bandit-task-exp6","48","208958","0.0-6.0-0.14","female","18","Australia","31993","25345","imgNWTK/KeepItSecret.jpg","imgNWTK/FindOutNow.jpg","imgNWTK/KeepItSecret.jpg","imgNWTK/FindOutNow.jpg","info","sub","2.97","45","2","1","0","null","imgNWTK/FindOutNow.jpg","imgNWTK/KeepItSecret.jpg","imgNWTK/FindOutNow.jpg","NaN","NaN","","","",""
"null","<p><b> Congratulations, you have finished this block. </b> </p><p>Please take a short break before moving onto the next block.</p><p>The next block will start after a 15 second break.</p><b>Remember, the point rewards are the same between blocks","","html-keyboard-response","49","223961","0.0-7.0","female","18","Australia","31993","25345","imgNWTK/KeepItSecret.jpg","imgNWTK/FindOutNow.jpg","imgNWTK/KeepItSecret.jpg","imgNWTK/FindOutNow.jpg","info","sub","2.97","","","","","","","","","","","null","","",""
"15550","","","bandit-task-exp6","50","242561","0.0-8.0-0.0","female","18","Australia","31993","25345","imgNWTK/KeepItSecret.jpg","imgNWTK/FindOutNow.jpg","imgNWTK/KeepItSecret.jpg","imgNWTK/FindOutNow.jpg","info","sub","2.97","46","2","1","0","null","imgNWTK/FindOutNow.jpg","imgNWTK/KeepItSecret.jpg","imgNWTK/FindOutNow.jpg","100","100","","","",""
"4673","","","bandit-task-exp6","51","250166","0.0-8.0-0.1","female","18","Australia","31993","25345","imgNWTK/KeepItSecret.jpg","imgNWTK/FindOutNow.jpg","imgNWTK/KeepItSecret.jpg","imgNWTK/FindOutNow.jpg","info","sub","2.97","47","1","2","0","null","imgNWTK/FindOutNow.jpg","imgNWTK/KeepItSecret.jpg","imgNWTK/KeepItSecret.jpg","100","100","","","",""
"3265","","","bandit-task-exp6","52","256221","0.0-8.0-0.2","female","18","Australia","31993","25345","imgNWTK/KeepItSecret.jpg","imgNWTK/FindOutNow.jpg","imgNWTK/KeepItSecret.jpg","imgNWTK/FindOutNow.jpg","info","sub","2.97","48","1","2","0","null","imgNWTK/KeepItSecret.jpg","imgNWTK/FindOutNow.jpg","imgNWTK/KeepItSecret.jpg","0","0","","","",""
"2526","","","bandit-task-exp6","53","261684","0.0-8.0-0.3","female","18","Australia","31993","25345","imgNWTK/KeepItSecret.jpg","imgNWTK/FindOutNow.jpg","imgNWTK/KeepItSecret.jpg","imgNWTK/FindOutNow.jpg","info","sub","2.97","49","1","2","0","null","imgNWTK/KeepItSecret.jpg","imgNWTK/FindOutNow.jpg","imgNWTK/KeepItSecret.jpg","0","0","","","",""
"2604","","","bandit-task-exp6","54","266936","0.0-8.0-0.4","female","18","Australia","31993","25345","imgNWTK/KeepItSecret.jpg","imgNWTK/FindOutNow.jpg","imgNWTK/KeepItSecret.jpg","imgNWTK/FindOutNow.jpg","info","sub","2.97","50","2","2","82","null","imgNWTK/KeepItSecret.jpg","imgNWTK/FindOutNow.jpg","imgNWTK/FindOutNow.jpg","0","0","","","",""
"3368","","","bandit-task-exp6","55","273298","0.0-8.0-0.5","female","18","Australia","31993","25345","imgNWTK/KeepItSecret.jpg","imgNWTK/FindOutNow.jpg","imgNWTK/KeepItSecret.jpg","imgNWTK/FindOutNow.jpg","info","sub","2.97","51","2","2","78","null","imgNWTK/KeepItSecret.jpg","imgNWTK/FindOutNow.jpg","imgNWTK/FindOutNow.jpg","100","100","","","",""
"2811","","","bandit-task-exp6","56","279831","0.0-8.0-0.6","female","18","Australia","31993","25345","imgNWTK/KeepItSecret.jpg","imgNWTK/FindOutNow.jpg","imgNWTK/KeepItSecret.jpg","imgNWTK/FindOutNow.jpg","info","sub","2.97","52","1","2","0","null","imgNWTK/FindOutNow.jpg","imgNWTK/KeepItSecret.jpg","imgNWTK/KeepItSecret.jpg","10","10","","","",""
"3219","","","bandit-task-exp6","57","286266","0.0-8.0-0.7","female","18","Australia","31993","25345","imgNWTK/KeepItSecret.jpg","imgNWTK/FindOutNow.jpg","imgNWTK/KeepItSecret.jpg","imgNWTK/FindOutNow.jpg","info","sub","2.97","53","2","2","81","null","imgNWTK/KeepItSecret.jpg","imgNWTK/FindOutNow.jpg","imgNWTK/FindOutNow.jpg","0","0","","","",""
"2745","","","bandit-task-exp6","58","292458","0.0-8.0-0.8","female","18","Australia","31993","25345","imgNWTK/KeepItSecret.jpg","imgNWTK/FindOutNow.jpg","imgNWTK/KeepItSecret.jpg","imgNWTK/FindOutNow.jpg","info","sub","2.97","54","2","1","0","null","imgNWTK/KeepItSecret.jpg","imgNWTK/FindOutNow.jpg","imgNWTK/FindOutNow.jpg","100","100","","","",""
"3896","","","bandit-task-exp6","59","299169","0.0-8.0-0.9","female","18","Australia","31993","25345","imgNWTK/KeepItSecret.jpg","imgNWTK/FindOutNow.jpg","imgNWTK/KeepItSecret.jpg","imgNWTK/FindOutNow.jpg","info","sub","2.97","55","2","1","0","null","imgNWTK/FindOutNow.jpg","imgNWTK/KeepItSecret.jpg","imgNWTK/FindOutNow.jpg","100","100","","","",""
"4403","","","bandit-task-exp6","60","306755","0.0-8.0-0.10","female","18","Australia","31993","25345","imgNWTK/KeepItSecret.jpg","imgNWTK/FindOutNow.jpg","imgNWTK/KeepItSecret.jpg","imgNWTK/FindOutNow.jpg","info","sub","2.97","56","2","1","0","null","imgNWTK/FindOutNow.jpg","imgNWTK/KeepItSecret.jpg","imgNWTK/FindOutNow.jpg","199","199","","","",""
"3670","","","bandit-task-exp6","61","313544","0.0-8.0-0.11","female","18","Australia","31993","25345","imgNWTK/KeepItSecret.jpg","imgNWTK/FindOutNow.jpg","imgNWTK/KeepItSecret.jpg","imgNWTK/FindOutNow.jpg","info","sub","2.97","57","1","2","0","null","imgNWTK/KeepItSecret.jpg","imgNWTK/FindOutNow.jpg","imgNWTK/KeepItSecret.jpg","10","10","","","",""
"3933","","","bandit-task-exp6","62","320678","0.0-8.0-0.12","female","18","Australia","31993","25345","imgNWTK/KeepItSecret.jpg","imgNWTK/FindOutNow.jpg","imgNWTK/KeepItSecret.jpg","imgNWTK/FindOutNow.jpg","info","sub","2.97","58","2","1","0","null","imgNWTK/KeepItSecret.jpg","imgNWTK/FindOutNow.jpg","imgNWTK/FindOutNow.jpg","10","10","","","",""
"3856","","","bandit-task-exp6","63","327285","0.0-8.0-0.13","female","18","Australia","31993","25345","imgNWTK/KeepItSecret.jpg","imgNWTK/FindOutNow.jpg","imgNWTK/KeepItSecret.jpg","imgNWTK/FindOutNow.jpg","info","sub","2.97","59","1","2","0","null","imgNWTK/FindOutNow.jpg","imgNWTK/KeepItSecret.jpg","imgNWTK/KeepItSecret.jpg","10","10","","","",""
"2041","","","bandit-task-exp6","64","331563","0.0-8.0-0.14","female","18","Australia","31993","25345","imgNWTK/KeepItSecret.jpg","imgNWTK/FindOutNow.jpg","imgNWTK/KeepItSecret.jpg","imgNWTK/FindOutNow.jpg","info","sub","2.97","60","1","1","115","null","imgNWTK/FindOutNow.jpg","imgNWTK/KeepItSecret.jpg","imgNWTK/KeepItSecret.jpg","0","0","","","",""
"2656","<p> Congratulations, you have finished the main part of the experiment. </p><p>Before you finish, we have a few short questions about the options and outcomes you saw in the task.</p>","0","html-button-response","65","334220","0.0-9.0","female","18","Australia","31993","25345","imgNWTK/KeepItSecret.jpg","imgNWTK/FindOutNow.jpg","imgNWTK/KeepItSecret.jpg","imgNWTK/FindOutNow.jpg","info","sub","2.97","","","","","","","","","","","","","",""
"3630","<p><b>Now, imagine that you clicked on the below button for another 10 trials (this includes <i> BOTH WIN and NO-WIN trials</i>).</p> <img src= 'imgNWTK/FindOutNow.jpg'></img></br></br> <p><b>Please type the reward (number of points) you would expect to receive on every trial.</br> Click start to begin.</p>","0","html-button-response","66","337850","0.0-10.0","female","18","Australia","31993","25345","imgNWTK/KeepItSecret.jpg","imgNWTK/FindOutNow.jpg","imgNWTK/KeepItSecret.jpg","imgNWTK/FindOutNow.jpg","info","sub","2.97","","","","","","","","","","","","","",""
"6010","","","survey-number","67","343872","0.0-11.0-0.0","female","18","Australia","31993","25345","imgNWTK/KeepItSecret.jpg","imgNWTK/FindOutNow.jpg","imgNWTK/KeepItSecret.jpg","imgNWTK/FindOutNow.jpg","info","sub","2.97","","","","","","","","","","","","{""undefined"":""89""}","imgNWTK/FindOutNow.jpg",""
"5423","","","survey-number","68","349298","0.0-11.0-0.1","female","18","Australia","31993","25345","imgNWTK/KeepItSecret.jpg","imgNWTK/FindOutNow.jpg","imgNWTK/KeepItSecret.jpg","imgNWTK/FindOutNow.jpg","info","sub","2.97","","","","","","","","","","","","{""undefined"":""88""}","imgNWTK/FindOutNow.jpg",""
"2505","","","survey-number","69","351810","0.0-11.0-0.2","female","18","Australia","31993","25345","imgNWTK/KeepItSecret.jpg","imgNWTK/FindOutNow.jpg","imgNWTK/KeepItSecret.jpg","imgNWTK/FindOutNow.jpg","info","sub","2.97","","","","","","","","","","","","{""undefined"":""89""}","imgNWTK/FindOutNow.jpg",""
"1388","","","survey-number","70","353207","0.0-11.0-0.3","female","18","Australia","31993","25345","imgNWTK/KeepItSecret.jpg","imgNWTK/FindOutNow.jpg","imgNWTK/KeepItSecret.jpg","imgNWTK/FindOutNow.jpg","info","sub","2.97","","","","","","","","","","","","{""undefined"":""89""}","imgNWTK/FindOutNow.jpg",""
"1183","","","survey-number","71","354402","0.0-11.0-0.4","female","18","Australia","31993","25345","imgNWTK/KeepItSecret.jpg","imgNWTK/FindOutNow.jpg","imgNWTK/KeepItSecret.jpg","imgNWTK/FindOutNow.jpg","info","sub","2.97","","","","","","","","","","","","{""undefined"":""89""}","imgNWTK/FindOutNow.jpg",""
"2003","","","survey-number","72","356416","0.0-11.0-0.5","female","18","Australia","31993","25345","imgNWTK/KeepItSecret.jpg","imgNWTK/FindOutNow.jpg","imgNWTK/KeepItSecret.jpg","imgNWTK/FindOutNow.jpg","info","sub","2.97","","","","","","","","","","","","{""undefined"":""102""}","imgNWTK/FindOutNow.jpg",""
"3145","","","survey-number","73","359572","0.0-11.0-0.6","female","18","Australia","31993","25345","imgNWTK/KeepItSecret.jpg","imgNWTK/FindOutNow.jpg","imgNWTK/KeepItSecret.jpg","imgNWTK/FindOutNow.jpg","info","sub","2.97","","","","","","","","","","","","{""undefined"":""190""}","imgNWTK/FindOutNow.jpg",""
"2196","","","survey-number","74","361770","0.0-11.0-0.7","female","18","Australia","31993","25345","imgNWTK/KeepItSecret.jpg","imgNWTK/FindOutNow.jpg","imgNWTK/KeepItSecret.jpg","imgNWTK/FindOutNow.jpg","info","sub","2.97","","","","","","","","","","","","{""undefined"":""182""}","imgNWTK/FindOutNow.jpg",""
"1707","","","survey-number","75","363482","0.0-11.0-0.8","female","18","Australia","31993","25345","imgNWTK/KeepItSecret.jpg","imgNWTK/FindOutNow.jpg","imgNWTK/KeepItSecret.jpg","imgNWTK/FindOutNow.jpg","info","sub","2.97","","","","","","","","","","","","{""undefined"":""0""}","imgNWTK/FindOutNow.jpg",""
"1929","","","survey-number","76","365416","0.0-11.0-0.9","female","18","Australia","31993","25345","imgNWTK/KeepItSecret.jpg","imgNWTK/FindOutNow.jpg","imgNWTK/KeepItSecret.jpg","imgNWTK/FindOutNow.jpg","info","sub","2.97","","","","","","","","","","","","{""undefined"":""0""}","imgNWTK/FindOutNow.jpg",""
"1358","<p><b>Imagine that you clicked on the below button for another 10 trials (this includes <i> both WIN and NO-WIN trials</i>).</p> <img src= 'imgNWTK/KeepItSecret.jpg'></img></br></br> <p><b>Please type the reward (number of points) you would expect to receive on every trial.</br> Click start to begin.</p>","0","html-button-response","77","366776","0.0-12.0","female","18","Australia","31993","25345","imgNWTK/KeepItSecret.jpg","imgNWTK/FindOutNow.jpg","imgNWTK/KeepItSecret.jpg","imgNWTK/FindOutNow.jpg","info","sub","2.97","","","","","","","","","","","","","",""
"4757","","","survey-number","78","371542","0.0-13.0-0.0","female","18","Australia","31993","25345","imgNWTK/KeepItSecret.jpg","imgNWTK/FindOutNow.jpg","imgNWTK/KeepItSecret.jpg","imgNWTK/FindOutNow.jpg","info","sub","2.97","","","","","","","","","","","","{""undefined"":""0""}","imgNWTK/KeepItSecret.jpg",""
"1013.0000000000582","","","survey-number","79","372562","0.0-13.0-0.1","female","18","Australia","31993","25345","imgNWTK/KeepItSecret.jpg","imgNWTK/FindOutNow.jpg","imgNWTK/KeepItSecret.jpg","imgNWTK/FindOutNow.jpg","info","sub","2.97","","","","","","","","","","","","{""undefined"":""0""}","imgNWTK/KeepItSecret.jpg",""
"2755","","","survey-number","80","375321","0.0-13.0-0.2","female","18","Australia","31993","25345","imgNWTK/KeepItSecret.jpg","imgNWTK/FindOutNow.jpg","imgNWTK/KeepItSecret.jpg","imgNWTK/FindOutNow.jpg","info","sub","2.97","","","","","","","","","","","","{""undefined"":""20""}","imgNWTK/KeepItSecret.jpg",""
"3387","","","survey-number","81","378714","0.0-13.0-0.3","female","18","Australia","31993","25345","imgNWTK/KeepItSecret.jpg","imgNWTK/FindOutNow.jpg","imgNWTK/KeepItSecret.jpg","imgNWTK/FindOutNow.jpg","info","sub","2.97","","","","","","","","","","","","{""undefined"":""89""}","imgNWTK/KeepItSecret.jpg",""
"1272.0000000000582","","","survey-number","82","379991","0.0-13.0-0.4","female","18","Australia","31993","25345","imgNWTK/KeepItSecret.jpg","imgNWTK/FindOutNow.jpg","imgNWTK/KeepItSecret.jpg","imgNWTK/FindOutNow.jpg","info","sub","2.97","","","","","","","","","","","","{""undefined"":""92""}","imgNWTK/KeepItSecret.jpg",""
"1668","","","survey-number","83","381667","0.0-13.0-0.5","female","18","Australia","31993","25345","imgNWTK/KeepItSecret.jpg","imgNWTK/FindOutNow.jpg","imgNWTK/KeepItSecret.jpg","imgNWTK/FindOutNow.jpg","info","sub","2.97","","","","","","","","","","","","{""undefined"":""100""}","imgNWTK/KeepItSecret.jpg",""
"1889","","","survey-number","84","383559","0.0-13.0-0.6","female","18","Australia","31993","25345","imgNWTK/KeepItSecret.jpg","imgNWTK/FindOutNow.jpg","imgNWTK/KeepItSecret.jpg","imgNWTK/FindOutNow.jpg","info","sub","2.97","","","","","","","","","","","","{""undefined"":""183""}","imgNWTK/KeepItSecret.jpg",""
"2008","","","survey-number","85","385571","0.0-13.0-0.7","female","18","Australia","31993","25345","imgNWTK/KeepItSecret.jpg","imgNWTK/FindOutNow.jpg","imgNWTK/KeepItSecret.jpg","imgNWTK/FindOutNow.jpg","info","sub","2.97","","","","","","","","","","","","{""undefined"":""0""}","imgNWTK/KeepItSecret.jpg",""
"1349","","","survey-number","86","386924","0.0-13.0-0.8","female","18","Australia","31993","25345","imgNWTK/KeepItSecret.jpg","imgNWTK/FindOutNow.jpg","imgNWTK/KeepItSecret.jpg","imgNWTK/FindOutNow.jpg","info","sub","2.97","","","","","","","","","","","","{""undefined"":""0""}","imgNWTK/KeepItSecret.jpg",""
"1021","","","survey-number","87","387953","0.0-13.0-0.9","female","18","Australia","31993","25345","imgNWTK/KeepItSecret.jpg","imgNWTK/FindOutNow.jpg","imgNWTK/KeepItSecret.jpg","imgNWTK/FindOutNow.jpg","info","sub","2.97","","","","","","","","","","","","{""undefined"":""0""}","imgNWTK/KeepItSecret.jpg",""
"19318","","","survey-number","88","407284","0.0-14.0","female","18","Australia","31993","25345","imgNWTK/KeepItSecret.jpg","imgNWTK/FindOutNow.jpg","imgNWTK/KeepItSecret.jpg","imgNWTK/FindOutNow.jpg","info","sub","2.97","","","","","","","","","","","","{""undefined"":""0""}","","imgNWTK/FindOutNow.jpg"
"5220","","","survey-number","89","412509","0.0-15.0","female","18","Australia","31993","25345","imgNWTK/KeepItSecret.jpg","imgNWTK/FindOutNow.jpg","imgNWTK/KeepItSecret.jpg","imgNWTK/FindOutNow.jpg","info","sub","2.97","","","","","","","","","","","","{""undefined"":""0""}","","imgNWTK/KeepItSecret.jpg"
"2088","<p style=""text-align:left;"">Great! We are almost at the end of the study... (Please do not close the browser window yet.)</p><p> Your final points balance is 2968, which equals to a bonus payment of $2.97. Please collect your payment from Mathews Building Room 721 (Mon-Fri 9am-5pm); please email amy.x.li@unsw.edu.au at least 24 hours prior to collection so that this is ready for you.</p><p style=""text-align:left;"">To view the debriefing form, please click <a href=""./imgNWTK/debrief_3205.pdf"" target=""_blank"">here</a> to download a copy.</p><p style=""text-align:left;"">Then, <b>please click the below button</b> to confirm that you have received your debrief and to complete the study. Upon clicking ""Finish!"", your SONA credit will be automatically assigned.</p>","0","html-button-response","90","414597","0.0-16.0","female","18","Australia","31993","25345","imgNWTK/KeepItSecret.jpg","imgNWTK/FindOutNow.jpg","imgNWTK/KeepItSecret.jpg","imgNWTK/FindOutNow.jpg","info","sub","2.97","","","","","","","","","","","","","",""
