"rt","stimulus","button_pressed","trial_type","trial_index","time_elapsed","internal_node_id","gender","age","language","PID","sona_id","subStim","optStim","stim1","stim2","infoCond","optimCond","bonus","responses","banditTrial","choice","cue","feedback","estimateData","leftOption","rightOption","choiceName","leftInput","rightInput","key_press","postQ","singleEst"
"100351","<p>Thank you for signing up to participate in SONA Study 465! <br> During this study, please focus on the experiment and refrain from activities such as:</p>- <b>Switching to other tabs on your browser (this will be monitored via the experiment)</br> - Using your mobile phone/cell phone</br> - Communicating with others</br></br></b><p>This way, you are helping to provide data that is useful for psychological research. We thank you for your cooperation!</p>","0","html-button-response","0","100356","0.0-0.0","male","18","Australia","97884","25643","neither","neither","imgNWTK/triangle.png","imgNWTK/square.png","noninfo","eq","2.45","","","","","","","","","","","","","",""
"1312","<p>Welcome to the experiment!</p><p>You will now read some instructions about the task. Press the 'Next' button to continue. </p>","0","html-button-response","1","101671","0.0-1.0","male","18","Australia","97884","25643","neither","neither","imgNWTK/triangle.png","imgNWTK/square.png","noninfo","eq","2.45","","","","","","","","","","","","","",""
"15278","<p> On each trial throughout the experiment you will choose between two options, </br>a <b>Black Square </b> and <b> Black Triangle </b>, as seen below.</p><div><div style= 'float: left; width: 300px; margin: 10px 10px;'><img src= 'imgNWTK/square.png'></img></div><div style= 'float: right; width: 300px; margin: 10px 10px;'><img src= 'imgNWTK/triangle.png'></img></div></div><br/><br/><br/><br/><br/><br/><br/><br/><br/><br/><br/><p>Each option results in winning points or receiving 0 points.</br>There is a 50% chance of either winning or receiving 0 points.</p><p>You won't receive the outcome until after a <b> 20 second delay</b>.</p>","0","html-button-response","2","116953","0.0-2.0-0.0","male","18","Australia","97884","25643","neither","neither","imgNWTK/triangle.png","imgNWTK/square.png","noninfo","eq","2.45","","","","","","","","","","","","","",""
"22207","<img src= 'imgNWTK/NonInfoDiagram.png'></img><p>As seen above, whether you choose the square or triangle, you will receive a coloured circle after the choice. </p> <p>This circle will be on screen for 20 seconds until you win points or receive 0 points.</p><p>The coloured circle depends on which option you chose. </br> In the above example, choosing a triangle leads to a green circle and choosing the square leads to a red circle.</p>Please note: the circles in your task will be different to the above colours.</br></br>","0","html-button-response","3","139163","0.0-2.0-1.0","male","18","Australia","97884","25643","neither","neither","imgNWTK/triangle.png","imgNWTK/square.png","noninfo","eq","2.45","","","","","","","","","","","","","",""
"11441","<img src= 'cues/winTrials_noInfo.png' width = '1200'></img><p>To reiterate, 50% of the outcomes of each option will be WIN TRIALS, and the other 50% will be NO-WIN TRIALS.","0","html-button-response","4","150606","0.0-2.0-2.0","male","18","Australia","97884","25643","neither","neither","imgNWTK/triangle.png","imgNWTK/square.png","noninfo","eq","2.45","","","","","","","","","","","","","",""
"40961","<p> There will be <b>four blocks</b> in the experiment.</br>You will be given a short 15 second break between each block.</p><p><b>The points and the options will remain the same between the blocks.</b></p>The blocks are there just to give you a small break.</br></br></br></br><p>The points you earn in the task are also equal to <b> actual money</b>.</br> <b>1000 points is equal to $1 AUD</b></p><p>This is the rate you will be paid at the experiment's end.","0","html-button-response","5","191568","0.0-2.0-3.0","male","18","Australia","97884","25643","neither","neither","imgNWTK/triangle.png","imgNWTK/square.png","noninfo","eq","2.45","","","","","","","","","","","","","",""
"10649","","","survey-multi-choice","6","202229","0.0-2.0-4.0","male","18","Australia","97884","25643","neither","neither","imgNWTK/triangle.png","imgNWTK/square.png","noninfo","eq","2.45","{""Q0"":""20 Seconds"",""Q1"":""True"",""Q2"":""Equally""}","","","","","","","","","","","","",""
"8099","<p> Well done, all your answers were correct! <br> The experiment is about to start now. <br/> Click start to continue, or email your researcher <b>(amy.x.li@unsw.edu.au)</b> if you have any questions before starting.","0","html-button-response","7","210335","0.0-3.0","male","18","Australia","97884","25643","neither","neither","imgNWTK/triangle.png","imgNWTK/square.png","noninfo","eq","2.45","","","","","","","","","","","","","",""
"3246","","","bandit-task-exp6","8","236930","0.0-4.0-0.0","male","18","Australia","97884","25643","neither","neither","imgNWTK/triangle.png","imgNWTK/square.png","noninfo","eq","2.45","","1","2","2","94","null","imgNWTK/square.png","imgNWTK/triangle.png","imgNWTK/square.png","NaN","NaN","","",""
"1980","","","bandit-task-exp6","9","261893","0.0-4.0-0.1","male","18","Australia","97884","25643","neither","neither","imgNWTK/triangle.png","imgNWTK/square.png","noninfo","eq","2.45","","2","1","1","93","null","imgNWTK/triangle.png","imgNWTK/square.png","imgNWTK/triangle.png","NaN","NaN","","",""
"1121","","","bandit-task-exp6","10","286427","0.0-4.0-0.2","male","18","Australia","97884","25643","neither","neither","imgNWTK/triangle.png","imgNWTK/square.png","noninfo","eq","2.45","","3","2","2","90","null","imgNWTK/square.png","imgNWTK/triangle.png","imgNWTK/square.png","NaN","NaN","","",""
"3294","","","bandit-task-exp6","11","311920","0.0-4.0-0.3","male","18","Australia","97884","25643","neither","neither","imgNWTK/triangle.png","imgNWTK/square.png","noninfo","eq","2.45","","4","2","1","0","null","imgNWTK/square.png","imgNWTK/triangle.png","imgNWTK/square.png","NaN","NaN","","",""
"1042","","","bandit-task-exp6","12","336362","0.0-4.0-0.4","male","18","Australia","97884","25643","neither","neither","imgNWTK/triangle.png","imgNWTK/square.png","noninfo","eq","2.45","","5","2","2","108","null","imgNWTK/square.png","imgNWTK/triangle.png","imgNWTK/square.png","NaN","NaN","","",""
"1042","","","bandit-task-exp6","13","360803","0.0-4.0-0.5","male","18","Australia","97884","25643","neither","neither","imgNWTK/triangle.png","imgNWTK/square.png","noninfo","eq","2.45","","6","1","2","0","null","imgNWTK/triangle.png","imgNWTK/square.png","imgNWTK/triangle.png","NaN","NaN","","",""
"1006","","","bandit-task-exp6","14","385916","0.0-4.0-0.6","male","18","Australia","97884","25643","neither","neither","imgNWTK/triangle.png","imgNWTK/square.png","noninfo","eq","2.45","","7","1","2","0","null","imgNWTK/triangle.png","imgNWTK/square.png","imgNWTK/triangle.png","NaN","NaN","","",""
"797","","","bandit-task-exp6","15","409940","0.0-4.0-0.7","male","18","Australia","97884","25643","neither","neither","imgNWTK/triangle.png","imgNWTK/square.png","noninfo","eq","2.45","","8","2","1","0","null","imgNWTK/square.png","imgNWTK/triangle.png","imgNWTK/square.png","NaN","NaN","","",""
"1005","","","bandit-task-exp6","16","433853","0.0-4.0-0.8","male","18","Australia","97884","25643","neither","neither","imgNWTK/triangle.png","imgNWTK/square.png","noninfo","eq","2.45","","9","1","2","0","null","imgNWTK/square.png","imgNWTK/triangle.png","imgNWTK/triangle.png","NaN","NaN","","",""
"1147","","","bandit-task-exp6","17","458414","0.0-4.0-0.9","male","18","Australia","97884","25643","neither","neither","imgNWTK/triangle.png","imgNWTK/square.png","noninfo","eq","2.45","","10","2","2","95","null","imgNWTK/square.png","imgNWTK/triangle.png","imgNWTK/square.png","NaN","NaN","","",""
"747","","","bandit-task-exp6","18","482805","0.0-4.0-0.10","male","18","Australia","97884","25643","neither","neither","imgNWTK/triangle.png","imgNWTK/square.png","noninfo","eq","2.45","","11","1","2","0","null","imgNWTK/square.png","imgNWTK/triangle.png","imgNWTK/triangle.png","NaN","NaN","","",""
"1211","","","bandit-task-exp6","19","507480","0.0-4.0-0.11","male","18","Australia","97884","25643","neither","neither","imgNWTK/triangle.png","imgNWTK/square.png","noninfo","eq","2.45","","12","2","2","103","null","imgNWTK/square.png","imgNWTK/triangle.png","imgNWTK/square.png","NaN","NaN","","",""
"961","","","bandit-task-exp6","20","531825","0.0-4.0-0.12","male","18","Australia","97884","25643","neither","neither","imgNWTK/triangle.png","imgNWTK/square.png","noninfo","eq","2.45","","13","2","1","0","null","imgNWTK/square.png","imgNWTK/triangle.png","imgNWTK/square.png","NaN","NaN","","",""
"3420","","","bandit-task-exp6","21","559222","0.0-4.0-0.13","male","18","Australia","97884","25643","neither","neither","imgNWTK/triangle.png","imgNWTK/square.png","noninfo","eq","2.45","","14","2","1","0","null","imgNWTK/triangle.png","imgNWTK/square.png","imgNWTK/square.png","NaN","NaN","","",""
"1336","","","bandit-task-exp6","22","584001","0.0-4.0-0.14","male","18","Australia","97884","25643","neither","neither","imgNWTK/triangle.png","imgNWTK/square.png","noninfo","eq","2.45","","15","1","2","0","null","imgNWTK/triangle.png","imgNWTK/square.png","imgNWTK/triangle.png","NaN","NaN","","",""
"null","<p><b> Congratulations, you have finished this block. </b> </p><p>Please take a short break before moving onto the next block.</p><p>The next block will start after a 15 second break.</p><b>Remember, the point rewards are the same between blocks","","html-keyboard-response","23","599009","0.0-5.0","male","18","Australia","97884","25643","neither","neither","imgNWTK/triangle.png","imgNWTK/square.png","noninfo","eq","2.45","","","","","","","","","","","","null","",""
"3594","","","bandit-task-exp6","24","625151","0.0-6.0-0.0","male","18","Australia","97884","25643","neither","neither","imgNWTK/triangle.png","imgNWTK/square.png","noninfo","eq","2.45","","16","2","1","0","null","imgNWTK/square.png","imgNWTK/triangle.png","imgNWTK/square.png","NaN","NaN","","",""
"934","","","bandit-task-exp6","25","648725","0.0-6.0-0.1","male","18","Australia","97884","25643","neither","neither","imgNWTK/triangle.png","imgNWTK/square.png","noninfo","eq","2.45","","17","2","2","91","null","imgNWTK/square.png","imgNWTK/triangle.png","imgNWTK/square.png","NaN","NaN","","",""
"641","","","bandit-task-exp6","26","672911","0.0-6.0-0.2","male","18","Australia","97884","25643","neither","neither","imgNWTK/triangle.png","imgNWTK/square.png","noninfo","eq","2.45","","18","2","1","0","null","imgNWTK/square.png","imgNWTK/triangle.png","imgNWTK/square.png","NaN","NaN","","",""
"1136","","","bandit-task-exp6","27","696993","0.0-6.0-0.3","male","18","Australia","97884","25643","neither","neither","imgNWTK/triangle.png","imgNWTK/square.png","noninfo","eq","2.45","","19","2","1","0","null","imgNWTK/triangle.png","imgNWTK/square.png","imgNWTK/square.png","NaN","NaN","","",""
"934","","","bandit-task-exp6","28","720962","0.0-6.0-0.4","male","18","Australia","97884","25643","neither","neither","imgNWTK/triangle.png","imgNWTK/square.png","noninfo","eq","2.45","","20","2","2","95","null","imgNWTK/square.png","imgNWTK/triangle.png","imgNWTK/square.png","NaN","NaN","","",""
"701","","","bandit-task-exp6","29","747901","0.0-6.0-0.5","male","18","Australia","97884","25643","neither","neither","imgNWTK/triangle.png","imgNWTK/square.png","noninfo","eq","2.45","","21","2","2","106","null","imgNWTK/square.png","imgNWTK/triangle.png","imgNWTK/square.png","NaN","NaN","","",""
"723","","","bandit-task-exp6","30","773690","0.0-6.0-0.6","male","18","Australia","97884","25643","neither","neither","imgNWTK/triangle.png","imgNWTK/square.png","noninfo","eq","2.45","","22","2","1","0","null","imgNWTK/square.png","imgNWTK/triangle.png","imgNWTK/square.png","NaN","NaN","","",""
"645","","","bandit-task-exp6","31","797203","0.0-6.0-0.7","male","18","Australia","97884","25643","neither","neither","imgNWTK/triangle.png","imgNWTK/square.png","noninfo","eq","2.45","","23","2","1","0","null","imgNWTK/square.png","imgNWTK/triangle.png","imgNWTK/square.png","NaN","NaN","","",""
"637","","","bandit-task-exp6","32","824617","0.0-6.0-0.8","male","18","Australia","97884","25643","neither","neither","imgNWTK/triangle.png","imgNWTK/square.png","noninfo","eq","2.45","","24","2","2","94","null","imgNWTK/square.png","imgNWTK/triangle.png","imgNWTK/square.png","NaN","NaN","","",""
"940","","","bandit-task-exp6","33","848325","0.0-6.0-0.9","male","18","Australia","97884","25643","neither","neither","imgNWTK/triangle.png","imgNWTK/square.png","noninfo","eq","2.45","","25","2","1","0","null","imgNWTK/triangle.png","imgNWTK/square.png","imgNWTK/square.png","NaN","NaN","","",""
"781","","","bandit-task-exp6","34","871562","0.0-6.0-0.10","male","18","Australia","97884","25643","neither","neither","imgNWTK/triangle.png","imgNWTK/square.png","noninfo","eq","2.45","","26","2","1","0","null","imgNWTK/square.png","imgNWTK/triangle.png","imgNWTK/square.png","NaN","NaN","","",""
"660","","","bandit-task-exp6","35","894913","0.0-6.0-0.11","male","18","Australia","97884","25643","neither","neither","imgNWTK/triangle.png","imgNWTK/square.png","noninfo","eq","2.45","","27","2","2","93","null","imgNWTK/square.png","imgNWTK/triangle.png","imgNWTK/square.png","NaN","NaN","","",""
"1504","","","bandit-task-exp6","36","922607","0.0-6.0-0.12","male","18","Australia","97884","25643","neither","neither","imgNWTK/triangle.png","imgNWTK/square.png","noninfo","eq","2.45","","28","2","2","94","null","imgNWTK/triangle.png","imgNWTK/square.png","imgNWTK/square.png","NaN","NaN","","",""
"1099","","","bandit-task-exp6","37","946323","0.0-6.0-0.13","male","18","Australia","97884","25643","neither","neither","imgNWTK/triangle.png","imgNWTK/square.png","noninfo","eq","2.45","","29","2","1","0","null","imgNWTK/triangle.png","imgNWTK/square.png","imgNWTK/square.png","NaN","NaN","","",""
"681","","","bandit-task-exp6","38","969615","0.0-6.0-0.14","male","18","Australia","97884","25643","neither","neither","imgNWTK/triangle.png","imgNWTK/square.png","noninfo","eq","2.45","","30","2","2","104","null","imgNWTK/triangle.png","imgNWTK/square.png","imgNWTK/square.png","NaN","NaN","","",""
"null","<p><b> Congratulations, you have finished this block. </b> </p><p>Please take a short break before moving onto the next block.</p><p>The next block will start after a 15 second break.</p><b>Remember, the point rewards are the same between blocks","","html-keyboard-response","39","984622","0.0-7.0","male","18","Australia","97884","25643","neither","neither","imgNWTK/triangle.png","imgNWTK/square.png","noninfo","eq","2.45","","","","","","","","","","","","null","",""
"2916","","","bandit-task-exp6","40","1010245","0.0-8.0-0.0","male","18","Australia","97884","25643","neither","neither","imgNWTK/triangle.png","imgNWTK/square.png","noninfo","eq","2.45","","31","2","1","0","null","imgNWTK/triangle.png","imgNWTK/square.png","imgNWTK/square.png","NaN","NaN","","",""
"689","","","bandit-task-exp6","41","1210435","0.0-8.0-0.1","male","18","Australia","97884","25643","neither","neither","imgNWTK/triangle.png","imgNWTK/square.png","noninfo","eq","2.45","","32","2","2","92","null","imgNWTK/square.png","imgNWTK/triangle.png","imgNWTK/square.png","NaN","NaN","","",""
"958","","","bandit-task-exp6","42","1242198","0.0-8.0-0.2","male","18","Australia","97884","25643","neither","neither","imgNWTK/triangle.png","imgNWTK/square.png","noninfo","eq","2.45","","33","2","1","0","null","imgNWTK/triangle.png","imgNWTK/square.png","imgNWTK/square.png","NaN","NaN","","",""
"739","","","bandit-task-exp6","43","1280102","0.0-8.0-0.3","male","18","Australia","97884","25643","neither","neither","imgNWTK/triangle.png","imgNWTK/square.png","noninfo","eq","2.45","","34","2","2","91","null","imgNWTK/triangle.png","imgNWTK/square.png","imgNWTK/square.png","NaN","NaN","","",""
"2188","","","bandit-task-exp6","44","1433600","0.0-8.0-0.4","male","18","Australia","97884","25643","neither","neither","imgNWTK/triangle.png","imgNWTK/square.png","noninfo","eq","2.45","","35","2","1","0","null","imgNWTK/square.png","imgNWTK/triangle.png","imgNWTK/square.png","NaN","NaN","","",""
"1263","","","bandit-task-exp6","45","1457244","0.0-8.0-0.5","male","18","Australia","97884","25643","neither","neither","imgNWTK/triangle.png","imgNWTK/square.png","noninfo","eq","2.45","","36","2","1","0","null","imgNWTK/triangle.png","imgNWTK/square.png","imgNWTK/square.png","NaN","NaN","","",""
"1094","","","bandit-task-exp6","46","1481837","0.0-8.0-0.6","male","18","Australia","97884","25643","neither","neither","imgNWTK/triangle.png","imgNWTK/square.png","noninfo","eq","2.45","","37","2","1","0","null","imgNWTK/square.png","imgNWTK/triangle.png","imgNWTK/square.png","NaN","NaN","","",""
"1015","","","bandit-task-exp6","47","1511681","0.0-8.0-0.7","male","18","Australia","97884","25643","neither","neither","imgNWTK/triangle.png","imgNWTK/square.png","noninfo","eq","2.45","","38","2","2","104","null","imgNWTK/triangle.png","imgNWTK/square.png","imgNWTK/square.png","NaN","NaN","","",""
"678","","","bandit-task-exp6","48","1535902","0.0-8.0-0.8","male","18","Australia","97884","25643","neither","neither","imgNWTK/triangle.png","imgNWTK/square.png","noninfo","eq","2.45","","39","2","2","95","null","imgNWTK/square.png","imgNWTK/triangle.png","imgNWTK/square.png","NaN","NaN","","",""
"1632","","","bandit-task-exp6","49","1613050","0.0-8.0-0.9","male","18","Australia","97884","25643","neither","neither","imgNWTK/triangle.png","imgNWTK/square.png","noninfo","eq","2.45","","40","2","2","109","null","imgNWTK/triangle.png","imgNWTK/square.png","imgNWTK/square.png","NaN","NaN","","",""
"992","","","bandit-task-exp6","50","1641492","0.0-8.0-0.10","male","18","Australia","97884","25643","neither","neither","imgNWTK/triangle.png","imgNWTK/square.png","noninfo","eq","2.45","","41","2","1","0","null","imgNWTK/triangle.png","imgNWTK/square.png","imgNWTK/square.png","NaN","NaN","","",""
"1013","","","bandit-task-exp6","51","1666314","0.0-8.0-0.11","male","18","Australia","97884","25643","neither","neither","imgNWTK/triangle.png","imgNWTK/square.png","noninfo","eq","2.45","","42","2","1","0","null","imgNWTK/triangle.png","imgNWTK/square.png","imgNWTK/square.png","NaN","NaN","","",""
"935","","","bandit-task-exp6","52","1691028","0.0-8.0-0.12","male","18","Australia","97884","25643","neither","neither","imgNWTK/triangle.png","imgNWTK/square.png","noninfo","eq","2.45","","43","2","1","0","null","imgNWTK/triangle.png","imgNWTK/square.png","imgNWTK/square.png","NaN","NaN","","",""
"895","","","bandit-task-exp6","53","1715061","0.0-8.0-0.13","male","18","Australia","97884","25643","neither","neither","imgNWTK/triangle.png","imgNWTK/square.png","noninfo","eq","2.45","","44","2","2","99","null","imgNWTK/square.png","imgNWTK/triangle.png","imgNWTK/square.png","NaN","NaN","","",""
"1472","","","bandit-task-exp6","54","1750022","0.0-8.0-0.14","male","18","Australia","97884","25643","neither","neither","imgNWTK/triangle.png","imgNWTK/square.png","noninfo","eq","2.45","","45","2","2","109","null","imgNWTK/triangle.png","imgNWTK/square.png","imgNWTK/square.png","NaN","NaN","","",""
"null","<p><b> Congratulations, you have finished this block. </b> </p><p>Please take a short break before moving onto the next block.</p><p>The next block will start after a 15 second break.</p><b>Remember, the point rewards are the same between blocks","","html-keyboard-response","55","1766190","0.0-9.0","male","18","Australia","97884","25643","neither","neither","imgNWTK/triangle.png","imgNWTK/square.png","noninfo","eq","2.45","","","","","","","","","","","","null","",""
"45034","","","bandit-task-exp6","56","1833372","0.0-10.0-0.0","male","18","Australia","97884","25643","neither","neither","imgNWTK/triangle.png","imgNWTK/square.png","noninfo","eq","2.45","","46","2","1","0","null","imgNWTK/square.png","imgNWTK/triangle.png","imgNWTK/square.png","94","89","","",""
"10082","","","bandit-task-exp6","57","1872274","0.0-10.0-0.1","male","18","Australia","97884","25643","neither","neither","imgNWTK/triangle.png","imgNWTK/square.png","noninfo","eq","2.45","","47","2","1","0","null","imgNWTK/triangle.png","imgNWTK/square.png","imgNWTK/square.png","88","99","","",""
"10824","","","bandit-task-exp6","58","1909109","0.0-10.0-0.2","male","18","Australia","97884","25643","neither","neither","imgNWTK/triangle.png","imgNWTK/square.png","noninfo","eq","2.45","","48","2","2","91","null","imgNWTK/square.png","imgNWTK/triangle.png","imgNWTK/square.png","103","90","","",""
"15846","","","bandit-task-exp6","59","1948777","0.0-10.0-0.3","male","18","Australia","97884","25643","neither","neither","imgNWTK/triangle.png","imgNWTK/square.png","noninfo","eq","2.45","","49","2","1","0","null","imgNWTK/square.png","imgNWTK/triangle.png","imgNWTK/square.png","89","88","","",""
"11621","","","bandit-task-exp6","60","1984790","0.0-10.0-0.4","male","18","Australia","97884","25643","neither","neither","imgNWTK/triangle.png","imgNWTK/square.png","noninfo","eq","2.45","","50","2","1","0","null","imgNWTK/triangle.png","imgNWTK/square.png","imgNWTK/square.png","89","99","","",""
"6749","","","bandit-task-exp6","61","2014604","0.0-10.0-0.5","male","18","Australia","97884","25643","neither","neither","imgNWTK/triangle.png","imgNWTK/square.png","noninfo","eq","2.45","","51","2","1","0","null","imgNWTK/square.png","imgNWTK/triangle.png","imgNWTK/square.png","99","80","","",""
"7077","","","bandit-task-exp6","62","2044503","0.0-10.0-0.6","male","18","Australia","97884","25643","neither","neither","imgNWTK/triangle.png","imgNWTK/square.png","noninfo","eq","2.45","","52","2","1","0","null","imgNWTK/square.png","imgNWTK/triangle.png","imgNWTK/square.png","99","87","","",""
"7535","","","bandit-task-exp6","63","2106269","0.0-10.0-0.7","male","18","Australia","97884","25643","neither","neither","imgNWTK/triangle.png","imgNWTK/square.png","noninfo","eq","2.45","","53","2","2","92","null","imgNWTK/triangle.png","imgNWTK/square.png","imgNWTK/square.png","70","78","","",""
"6512","","","bandit-task-exp6","64","2140945","0.0-10.0-0.8","male","18","Australia","97884","25643","neither","neither","imgNWTK/triangle.png","imgNWTK/square.png","noninfo","eq","2.45","","54","2","1","0","null","imgNWTK/triangle.png","imgNWTK/square.png","imgNWTK/square.png","60","89","","",""
"9127","","","bandit-task-exp6","65","2172673","0.0-10.0-0.9","male","18","Australia","97884","25643","neither","neither","imgNWTK/triangle.png","imgNWTK/square.png","noninfo","eq","2.45","","55","2","2","94","null","imgNWTK/square.png","imgNWTK/triangle.png","imgNWTK/square.png","0","60","","",""
"7281","","","bandit-task-exp6","66","2203042","0.0-10.0-0.10","male","18","Australia","97884","25643","neither","neither","imgNWTK/triangle.png","imgNWTK/square.png","noninfo","eq","2.45","","56","2","1","0","null","imgNWTK/square.png","imgNWTK/triangle.png","imgNWTK/square.png","99","80","","",""
"8449","","","bandit-task-exp6","67","2233714","0.0-10.0-0.11","male","18","Australia","97884","25643","neither","neither","imgNWTK/triangle.png","imgNWTK/square.png","noninfo","eq","2.45","","57","2","1","0","null","imgNWTK/square.png","imgNWTK/triangle.png","imgNWTK/square.png","111","67","","",""
"7986","","","bandit-task-exp6","68","2319390","0.0-10.0-0.12","male","18","Australia","97884","25643","neither","neither","imgNWTK/triangle.png","imgNWTK/square.png","noninfo","eq","2.45","","58","2","1","0","null","imgNWTK/square.png","imgNWTK/triangle.png","imgNWTK/square.png","99","67","","",""
"5005","","","bandit-task-exp6","69","2358941","0.0-10.0-0.13","male","18","Australia","97884","25643","neither","neither","imgNWTK/triangle.png","imgNWTK/square.png","noninfo","eq","2.45","","59","2","2","110","null","imgNWTK/square.png","imgNWTK/triangle.png","imgNWTK/square.png","99","50","","",""
"5976","","","bandit-task-exp6","70","2400144","0.0-10.0-0.14","male","18","Australia","97884","25643","neither","neither","imgNWTK/triangle.png","imgNWTK/square.png","noninfo","eq","2.45","","60","2","2","105","null","imgNWTK/triangle.png","imgNWTK/square.png","imgNWTK/square.png","89","143","","",""
"2398","<p> Congratulations, you have finished the main part of the experiment. </p><p>Before you finish, we have a few short questions about the options and outcomes you saw in the task.</p>","0","html-button-response","71","2402545","0.0-11.0","male","18","Australia","97884","25643","neither","neither","imgNWTK/triangle.png","imgNWTK/square.png","noninfo","eq","2.45","","","","","","","","","","","","","",""
"11180","<p><b>Now, imagine that you clicked on the below button for another 10 trials (this includes <i> BOTH WIN and NO-WIN trials</i>).</p> <img src= 'imgNWTK/triangle.png'></img></br></br> <p><b>Please type the reward (number of points) you would expect to receive on every trial.</br> Click start to begin.</p>","0","html-button-response","72","2413727","0.0-12.0","male","18","Australia","97884","25643","neither","neither","imgNWTK/triangle.png","imgNWTK/square.png","noninfo","eq","2.45","","","","","","","","","","","","","",""
"4230.299999952316","","","survey-number","73","2417965","0.0-13.0-0.0","male","18","Australia","97884","25643","neither","neither","imgNWTK/triangle.png","imgNWTK/square.png","noninfo","eq","2.45","{""undefined"":""80""}","","","","","","","","","","","","imgNWTK/triangle.png",""
"1872","","","survey-number","74","2419843","0.0-13.0-0.1","male","18","Australia","97884","25643","neither","neither","imgNWTK/triangle.png","imgNWTK/square.png","noninfo","eq","2.45","{""undefined"":""0""}","","","","","","","","","","","","imgNWTK/triangle.png",""
"675.9000000953674","","","survey-number","75","2420525","0.0-13.0-0.2","male","18","Australia","97884","25643","neither","neither","imgNWTK/triangle.png","imgNWTK/square.png","noninfo","eq","2.45","{""undefined"":""0""}","","","","","","","","","","","","imgNWTK/triangle.png",""
"577.2999999523163","","","survey-number","76","2421107","0.0-13.0-0.3","male","18","Australia","97884","25643","neither","neither","imgNWTK/triangle.png","imgNWTK/square.png","noninfo","eq","2.45","{""undefined"":""0""}","","","","","","","","","","","","imgNWTK/triangle.png",""
"2346.7000000476837","","","survey-number","77","2423459","0.0-13.0-0.4","male","18","Australia","97884","25643","neither","neither","imgNWTK/triangle.png","imgNWTK/square.png","noninfo","eq","2.45","{""undefined"":""93""}","","","","","","","","","","","","imgNWTK/triangle.png",""
"1059.7000000476837","","","survey-number","78","2424524","0.0-13.0-0.5","male","18","Australia","97884","25643","neither","neither","imgNWTK/triangle.png","imgNWTK/square.png","noninfo","eq","2.45","{""undefined"":""0""}","","","","","","","","","","","","imgNWTK/triangle.png",""
"739.7000000476837","","","survey-number","79","2425269","0.0-13.0-0.6","male","18","Australia","97884","25643","neither","neither","imgNWTK/triangle.png","imgNWTK/square.png","noninfo","eq","2.45","{""undefined"":""0""}","","","","","","","","","","","","imgNWTK/triangle.png",""
"863.7000000476837","","","survey-number","80","2426138","0.0-13.0-0.7","male","18","Australia","97884","25643","neither","neither","imgNWTK/triangle.png","imgNWTK/square.png","noninfo","eq","2.45","{""undefined"":""0""}","","","","","","","","","","","","imgNWTK/triangle.png",""
"2666.7000000476837","","","survey-number","81","2428810","0.0-13.0-0.8","male","18","Australia","97884","25643","neither","neither","imgNWTK/triangle.png","imgNWTK/square.png","noninfo","eq","2.45","{""undefined"":""81""}","","","","","","","","","","","","imgNWTK/triangle.png",""
"1701.3999998569489","","","survey-number","82","2430517","0.0-13.0-0.9","male","18","Australia","97884","25643","neither","neither","imgNWTK/triangle.png","imgNWTK/square.png","noninfo","eq","2.45","{""undefined"":""90""}","","","","","","","","","","","","imgNWTK/triangle.png",""
"2572","<p><b>Imagine that you clicked on the below button for another 10 trials (this includes <i> both WIN and NO-WIN trials</i>).</p> <img src= 'imgNWTK/square.png'></img></br></br> <p><b>Please type the reward (number of points) you would expect to receive on every trial.</br> Click start to begin.</p>","0","html-button-response","83","2433091","0.0-14.0","male","18","Australia","97884","25643","neither","neither","imgNWTK/triangle.png","imgNWTK/square.png","noninfo","eq","2.45","","","","","","","","","","","","","",""
"2632.100000143051","","","survey-number","84","2435730","0.0-15.0-0.0","male","18","Australia","97884","25643","neither","neither","imgNWTK/triangle.png","imgNWTK/square.png","noninfo","eq","2.45","{""undefined"":""96""}","","","","","","","","","","","","imgNWTK/square.png",""
"1182.7000000476837","","","survey-number","85","2436918","0.0-15.0-0.1","male","18","Australia","97884","25643","neither","neither","imgNWTK/triangle.png","imgNWTK/square.png","noninfo","eq","2.45","{""undefined"":""0""}","","","","","","","","","","","","imgNWTK/square.png",""
"1627.7999999523163","","","survey-number","86","2438552","0.0-15.0-0.2","male","18","Australia","97884","25643","neither","neither","imgNWTK/triangle.png","imgNWTK/square.png","noninfo","eq","2.45","{""undefined"":""99""}","","","","","","","","","","","","imgNWTK/square.png",""
"2098.0999999046326","","","survey-number","87","2440655","0.0-15.0-0.3","male","18","Australia","97884","25643","neither","neither","imgNWTK/triangle.png","imgNWTK/square.png","noninfo","eq","2.45","{""undefined"":""105""}","","","","","","","","","","","","imgNWTK/square.png",""
"760.3999998569489","","","survey-number","88","2441421","0.0-15.0-0.4","male","18","Australia","97884","25643","neither","neither","imgNWTK/triangle.png","imgNWTK/square.png","noninfo","eq","2.45","{""undefined"":""0""}","","","","","","","","","","","","imgNWTK/square.png",""
"709.7000000476837","","","survey-number","89","2442136","0.0-15.0-0.5","male","18","Australia","97884","25643","neither","neither","imgNWTK/triangle.png","imgNWTK/square.png","noninfo","eq","2.45","{""undefined"":""0""}","","","","","","","","","","","","imgNWTK/square.png",""
"909.2999999523163","","","survey-number","90","2443051","0.0-15.0-0.6","male","18","Australia","97884","25643","neither","neither","imgNWTK/triangle.png","imgNWTK/square.png","noninfo","eq","2.45","{""undefined"":""0""}","","","","","","","","","","","","imgNWTK/square.png",""
"1247.3999998569489","","","survey-number","91","2444304","0.0-15.0-0.7","male","18","Australia","97884","25643","neither","neither","imgNWTK/triangle.png","imgNWTK/square.png","noninfo","eq","2.45","{""undefined"":""114""}","","","","","","","","","","","","imgNWTK/square.png",""
"1627.4000000953674","","","survey-number","92","2445937","0.0-15.0-0.8","male","18","Australia","97884","25643","neither","neither","imgNWTK/triangle.png","imgNWTK/square.png","noninfo","eq","2.45","{""undefined"":""0""}","","","","","","","","","","","","imgNWTK/square.png",""
"2781.7999999523163","","","survey-number","93","2448724","0.0-15.0-0.9","male","18","Australia","97884","25643","neither","neither","imgNWTK/triangle.png","imgNWTK/square.png","noninfo","eq","2.45","{""undefined"":""91""}","","","","","","","","","","","","imgNWTK/square.png",""
"17504.89999985695","","","survey-number","94","2466239","0.0-16.0","male","18","Australia","97884","25643","neither","neither","imgNWTK/triangle.png","imgNWTK/square.png","noninfo","eq","2.45","{""undefined"":""96""}","","","","","","","","","","","","","imgNWTK/square.png"
"6380.200000047684","","","survey-number","95","2472626","0.0-17.0","male","18","Australia","97884","25643","neither","neither","imgNWTK/triangle.png","imgNWTK/square.png","noninfo","eq","2.45","{""undefined"":""88""}","","","","","","","","","","","","","imgNWTK/triangle.png"
"43850","<p style=""text-align:left;"">Great! We are almost at the end of the study... (Please do not close the browser window yet.)</p><p> Your final points balance is 2451, which equals to a bonus payment of $2.45. Please collect your payment from Mathews Building Room 721 (Mon-Fri 9am-5pm); please email amy.x.li@unsw.edu.au at least 24 hours prior to collection so that this is ready for you.</p><p style=""text-align:left;"">To view the debriefing form, please click <a href=""./imgNWTK/debrief_3205.pdf"" target=""_blank"">here</a> to download a copy.</p><p style=""text-align:left;"">Then, <b>please click the below button</b> to confirm that you have received your debrief and to complete the study. Upon clicking ""Finish!"", your SONA credit will be automatically assigned.</p>","0","html-button-response","96","2516478","0.0-18.0","male","18","Australia","97884","25643","neither","neither","imgNWTK/triangle.png","imgNWTK/square.png","noninfo","eq","2.45","","","","","","","","","","","","","",""
