"rt","stimulus","button_pressed","trial_type","trial_index","time_elapsed","internal_node_id","gender","age","language","PID","sona_id","subStim","optStim","stim1","stim2","infoCond","optimCond","bonus","responses","banditTrial","choice","cue","feedback","estimateData","leftOption","rightOption","choiceName","leftInput","rightInput","key_press","postQ","singleEst"
"1181","<p>Thank you for signing up to participate in SONA Study 465! <br> During this study, please focus on the experiment and refrain from activities such as:</p>- <b>Switching to other tabs on your browser (this will be monitored via the experiment)</br> - Using your mobile phone/cell phone</br> - Communicating with others</br></br></b><p>This way, you are helping to provide data that is useful for psychological research. We thank you for your cooperation!</p>","0","html-button-response","0","1185","0.0-0.0","female","18","australia","27741","24893","neither","neither","imgNWTK/square.png","imgNWTK/triangle.png","noninfo","eq","3.11","","","","","","","","","","","","","",""
"1031","<p>Welcome to the experiment!</p><p>You will now read some instructions about the task. Press the 'Next' button to continue. </p>","0","html-button-response","1","2222","0.0-1.0","female","18","australia","27741","24893","neither","neither","imgNWTK/square.png","imgNWTK/triangle.png","noninfo","eq","3.11","","","","","","","","","","","","","",""
"11965","<p> On each trial throughout the experiment you will choose between two options, </br>a <b>Black Square </b> and <b> Black Triangle </b>, as seen below.</p><div><div style= 'float: left; width: 300px; margin: 10px 10px;'><img src= 'imgNWTK/square.png'></img></div><div style= 'float: right; width: 300px; margin: 10px 10px;'><img src= 'imgNWTK/triangle.png'></img></div></div><br/><br/><br/><br/><br/><br/><br/><br/><br/><br/><br/><p>Each option results in winning points or receiving 0 points.</br>There is a 50% chance of either winning or receiving 0 points.</p><p>You won't receive the outcome until after a <b> 20 second delay</b>.</p>","0","html-button-response","2","14190","0.0-2.0-0.0","female","18","australia","27741","24893","neither","neither","imgNWTK/square.png","imgNWTK/triangle.png","noninfo","eq","3.11","","","","","","","","","","","","","",""
"26019","<img src= 'imgNWTK/NonInfoDiagram.png'></img><p>As seen above, whether you choose the square or triangle, you will receive a coloured circle after the choice. </p> <p>This circle will be on screen for 20 seconds until you win points or receive 0 points.</p><p>The coloured circle depends on which option you chose. </br> In the above example, choosing a triangle leads to a green circle and choosing the square leads to a red circle.</p>Please note: the circles in your task will be different to the above colours.</br></br>","0","html-button-response","3","40211","0.0-2.0-1.0","female","18","australia","27741","24893","neither","neither","imgNWTK/square.png","imgNWTK/triangle.png","noninfo","eq","3.11","","","","","","","","","","","","","",""
"12888","<img src= 'cues/winTrials_noInfo.png' width = '1200'></img><p>To reiterate, 50% of the outcomes of each option will be WIN TRIALS, and the other 50% will be NO-WIN TRIALS.","0","html-button-response","4","53104","0.0-2.0-2.0","female","18","australia","27741","24893","neither","neither","imgNWTK/square.png","imgNWTK/triangle.png","noninfo","eq","3.11","","","","","","","","","","","","","",""
"15810","<p> There will be <b>four blocks</b> in the experiment.</br>You will be given a short 15 second break between each block.</p><p><b>The points and the options will remain the same between the blocks.</b></p>The blocks are there just to give you a small break.</br></br></br></br><p>The points you earn in the task are also equal to <b> actual money</b>.</br> <b>1000 points is equal to $1 AUD</b></p><p>This is the rate you will be paid at the experiment's end.","0","html-button-response","5","68917","0.0-2.0-3.0","female","18","australia","27741","24893","neither","neither","imgNWTK/square.png","imgNWTK/triangle.png","noninfo","eq","3.11","","","","","","","","","","","","","",""
"17277","","","survey-multi-choice","6","86203","0.0-2.0-4.0","female","18","australia","27741","24893","neither","neither","imgNWTK/square.png","imgNWTK/triangle.png","noninfo","eq","3.11","{""Q0"":""20 Seconds"",""Q1"":""True"",""Q2"":""Equally""}","","","","","","","","","","","","",""
"1168","<p> Well done, all your answers were correct! <br> The experiment is about to start now. <br/> Click start to continue, or email your researcher <b>(amy.x.li@unsw.edu.au)</b> if you have any questions before starting.","0","html-button-response","7","87378","0.0-3.0","female","18","australia","27741","24893","neither","neither","imgNWTK/square.png","imgNWTK/triangle.png","noninfo","eq","3.11","","","","","","","","","","","","","",""
"3097","","","bandit-task-exp6","8","114921","0.0-4.0-0.0","female","18","australia","27741","24893","neither","neither","imgNWTK/square.png","imgNWTK/triangle.png","noninfo","eq","3.11","","1","2","2","101","null","imgNWTK/square.png","imgNWTK/triangle.png","imgNWTK/triangle.png","NaN","NaN","","",""
"6576","","","bandit-task-exp6","9","150793","0.0-4.0-0.1","female","18","australia","27741","24893","neither","neither","imgNWTK/square.png","imgNWTK/triangle.png","noninfo","eq","3.11","","2","2","1","0","null","imgNWTK/triangle.png","imgNWTK/square.png","imgNWTK/triangle.png","NaN","NaN","","",""
"2122","","","bandit-task-exp6","10","175320","0.0-4.0-0.2","female","18","australia","27741","24893","neither","neither","imgNWTK/square.png","imgNWTK/triangle.png","noninfo","eq","3.11","","3","1","2","0","null","imgNWTK/triangle.png","imgNWTK/square.png","imgNWTK/square.png","NaN","NaN","","",""
"6426","","","bandit-task-exp6","11","204830","0.0-4.0-0.3","female","18","australia","27741","24893","neither","neither","imgNWTK/square.png","imgNWTK/triangle.png","noninfo","eq","3.11","","4","2","2","106","null","imgNWTK/square.png","imgNWTK/triangle.png","imgNWTK/triangle.png","NaN","NaN","","",""
"1326","","","bandit-task-exp6","12","243620","0.0-4.0-0.4","female","18","australia","27741","24893","neither","neither","imgNWTK/square.png","imgNWTK/triangle.png","noninfo","eq","3.11","","5","2","2","97","null","imgNWTK/square.png","imgNWTK/triangle.png","imgNWTK/triangle.png","NaN","NaN","","",""
"1961","","","bandit-task-exp6","13","267693","0.0-4.0-0.5","female","18","australia","27741","24893","neither","neither","imgNWTK/square.png","imgNWTK/triangle.png","noninfo","eq","3.11","","6","2","2","98","null","imgNWTK/square.png","imgNWTK/triangle.png","imgNWTK/triangle.png","NaN","NaN","","",""
"954","","","bandit-task-exp6","14","291918","0.0-4.0-0.6","female","18","australia","27741","24893","neither","neither","imgNWTK/square.png","imgNWTK/triangle.png","noninfo","eq","3.11","","7","1","2","0","null","imgNWTK/triangle.png","imgNWTK/square.png","imgNWTK/square.png","NaN","NaN","","",""
"2127","","","bandit-task-exp6","15","316061","0.0-4.0-0.7","female","18","australia","27741","24893","neither","neither","imgNWTK/square.png","imgNWTK/triangle.png","noninfo","eq","3.11","","8","1","1","92","null","imgNWTK/square.png","imgNWTK/triangle.png","imgNWTK/square.png","NaN","NaN","","",""
"2236","","","bandit-task-exp6","16","340344","0.0-4.0-0.8","female","18","australia","27741","24893","neither","neither","imgNWTK/square.png","imgNWTK/triangle.png","noninfo","eq","3.11","","9","2","1","0","null","imgNWTK/triangle.png","imgNWTK/square.png","imgNWTK/triangle.png","NaN","NaN","","",""
"2978","","","bandit-task-exp6","17","365877","0.0-4.0-0.9","female","18","australia","27741","24893","neither","neither","imgNWTK/square.png","imgNWTK/triangle.png","noninfo","eq","3.11","","10","1","2","0","null","imgNWTK/square.png","imgNWTK/triangle.png","imgNWTK/square.png","NaN","NaN","","",""
"4886","","","bandit-task-exp6","18","392619","0.0-4.0-0.10","female","18","australia","27741","24893","neither","neither","imgNWTK/square.png","imgNWTK/triangle.png","noninfo","eq","3.11","","11","1","2","0","null","imgNWTK/square.png","imgNWTK/triangle.png","imgNWTK/square.png","NaN","NaN","","",""
"1102","","","bandit-task-exp6","19","415544","0.0-4.0-0.11","female","18","australia","27741","24893","neither","neither","imgNWTK/square.png","imgNWTK/triangle.png","noninfo","eq","3.11","","12","2","2","104","null","imgNWTK/triangle.png","imgNWTK/square.png","imgNWTK/triangle.png","NaN","NaN","","",""
"1669","","","bandit-task-exp6","20","438801","0.0-4.0-0.12","female","18","australia","27741","24893","neither","neither","imgNWTK/square.png","imgNWTK/triangle.png","noninfo","eq","3.11","","13","1","2","0","null","imgNWTK/square.png","imgNWTK/triangle.png","imgNWTK/square.png","NaN","NaN","","",""
"3094","","","bandit-task-exp6","21","464224","0.0-4.0-0.13","female","18","australia","27741","24893","neither","neither","imgNWTK/square.png","imgNWTK/triangle.png","noninfo","eq","3.11","","14","1","1","101","null","imgNWTK/triangle.png","imgNWTK/square.png","imgNWTK/square.png","NaN","NaN","","",""
"942","","","bandit-task-exp6","22","487193","0.0-4.0-0.14","female","18","australia","27741","24893","neither","neither","imgNWTK/square.png","imgNWTK/triangle.png","noninfo","eq","3.11","","15","2","2","106","null","imgNWTK/square.png","imgNWTK/triangle.png","imgNWTK/triangle.png","NaN","NaN","","",""
"null","<p><b> Congratulations, you have finished this block. </b> </p><p>Please take a short break before moving onto the next block.</p><p>The next block will start after a 15 second break.</p><b>Remember, the point rewards are the same between blocks","","html-keyboard-response","23","502202","0.0-5.0","female","18","australia","27741","24893","neither","neither","imgNWTK/square.png","imgNWTK/triangle.png","noninfo","eq","3.11","","","","","","","","","","","","null","",""
"3433","","","bandit-task-exp6","24","527534","0.0-6.0-0.0","female","18","australia","27741","24893","neither","neither","imgNWTK/square.png","imgNWTK/triangle.png","noninfo","eq","3.11","","16","2","1","0","null","imgNWTK/triangle.png","imgNWTK/square.png","imgNWTK/triangle.png","NaN","NaN","","",""
"5452","","","bandit-task-exp6","25","555749","0.0-6.0-0.1","female","18","australia","27741","24893","neither","neither","imgNWTK/square.png","imgNWTK/triangle.png","noninfo","eq","3.11","","17","2","1","0","null","imgNWTK/square.png","imgNWTK/triangle.png","imgNWTK/triangle.png","NaN","NaN","","",""
"1598","","","bandit-task-exp6","26","579691","0.0-6.0-0.2","female","18","australia","27741","24893","neither","neither","imgNWTK/square.png","imgNWTK/triangle.png","noninfo","eq","3.11","","18","1","2","0","null","imgNWTK/square.png","imgNWTK/triangle.png","imgNWTK/square.png","NaN","NaN","","",""
"3038","","","bandit-task-exp6","27","606989","0.0-6.0-0.3","female","18","australia","27741","24893","neither","neither","imgNWTK/square.png","imgNWTK/triangle.png","noninfo","eq","3.11","","19","1","2","0","null","imgNWTK/square.png","imgNWTK/triangle.png","imgNWTK/square.png","NaN","NaN","","",""
"753","","","bandit-task-exp6","28","630408","0.0-6.0-0.4","female","18","australia","27741","24893","neither","neither","imgNWTK/square.png","imgNWTK/triangle.png","noninfo","eq","3.11","","20","1","1","104","null","imgNWTK/square.png","imgNWTK/triangle.png","imgNWTK/square.png","NaN","NaN","","",""
"10714","","","bandit-task-exp6","29","667760","0.0-6.0-0.5","female","18","australia","27741","24893","neither","neither","imgNWTK/square.png","imgNWTK/triangle.png","noninfo","eq","3.11","","21","2","1","0","null","imgNWTK/triangle.png","imgNWTK/square.png","imgNWTK/triangle.png","NaN","NaN","","",""
"1287","","","bandit-task-exp6","30","697876","0.0-6.0-0.6","female","18","australia","27741","24893","neither","neither","imgNWTK/square.png","imgNWTK/triangle.png","noninfo","eq","3.11","","22","2","2","103","null","imgNWTK/triangle.png","imgNWTK/square.png","imgNWTK/triangle.png","NaN","NaN","","",""
"871","","","bandit-task-exp6","31","720513","0.0-6.0-0.7","female","18","australia","27741","24893","neither","neither","imgNWTK/square.png","imgNWTK/triangle.png","noninfo","eq","3.11","","23","2","2","95","null","imgNWTK/square.png","imgNWTK/triangle.png","imgNWTK/triangle.png","NaN","NaN","","",""
"1124","","","bandit-task-exp6","32","837119","0.0-6.0-0.8","female","18","australia","27741","24893","neither","neither","imgNWTK/square.png","imgNWTK/triangle.png","noninfo","eq","3.11","","24","1","2","0","null","imgNWTK/triangle.png","imgNWTK/square.png","imgNWTK/square.png","NaN","NaN","","",""
"703","","","bandit-task-exp6","33","865159","0.0-6.0-0.9","female","18","australia","27741","24893","neither","neither","imgNWTK/square.png","imgNWTK/triangle.png","noninfo","eq","3.11","","25","2","2","102","null","imgNWTK/triangle.png","imgNWTK/square.png","imgNWTK/triangle.png","NaN","NaN","","",""
"1465","","","bandit-task-exp6","34","891143","0.0-6.0-0.10","female","18","australia","27741","24893","neither","neither","imgNWTK/square.png","imgNWTK/triangle.png","noninfo","eq","3.11","","26","1","1","110","null","imgNWTK/square.png","imgNWTK/triangle.png","imgNWTK/square.png","NaN","NaN","","",""
"1126","","","bandit-task-exp6","35","913989","0.0-6.0-0.11","female","18","australia","27741","24893","neither","neither","imgNWTK/square.png","imgNWTK/triangle.png","noninfo","eq","3.11","","27","2","2","94","null","imgNWTK/triangle.png","imgNWTK/square.png","imgNWTK/triangle.png","NaN","NaN","","",""
"1189","","","bandit-task-exp6","36","937810","0.0-6.0-0.12","female","18","australia","27741","24893","neither","neither","imgNWTK/square.png","imgNWTK/triangle.png","noninfo","eq","3.11","","28","1","1","105","null","imgNWTK/square.png","imgNWTK/triangle.png","imgNWTK/square.png","NaN","NaN","","",""
"4354","","","bandit-task-exp6","37","964202","0.0-6.0-0.13","female","18","australia","27741","24893","neither","neither","imgNWTK/square.png","imgNWTK/triangle.png","noninfo","eq","3.11","","29","2","1","0","null","imgNWTK/square.png","imgNWTK/triangle.png","imgNWTK/triangle.png","NaN","NaN","","",""
"720","","","bandit-task-exp6","38","988017","0.0-6.0-0.14","female","18","australia","27741","24893","neither","neither","imgNWTK/square.png","imgNWTK/triangle.png","noninfo","eq","3.11","","30","2","2","101","null","imgNWTK/triangle.png","imgNWTK/square.png","imgNWTK/triangle.png","NaN","NaN","","",""
"null","<p><b> Congratulations, you have finished this block. </b> </p><p>Please take a short break before moving onto the next block.</p><p>The next block will start after a 15 second break.</p><b>Remember, the point rewards are the same between blocks","","html-keyboard-response","39","1003025","0.0-7.0","female","18","australia","27741","24893","neither","neither","imgNWTK/square.png","imgNWTK/triangle.png","noninfo","eq","3.11","","","","","","","","","","","","null","",""
"5604","","","bandit-task-exp6","40","1031786","0.0-8.0-0.0","female","18","australia","27741","24893","neither","neither","imgNWTK/square.png","imgNWTK/triangle.png","noninfo","eq","3.11","","31","2","2","92","null","imgNWTK/triangle.png","imgNWTK/square.png","imgNWTK/triangle.png","NaN","NaN","","",""
"2594","","","bandit-task-exp6","41","1059907","0.0-8.0-0.1","female","18","australia","27741","24893","neither","neither","imgNWTK/square.png","imgNWTK/triangle.png","noninfo","eq","3.11","","32","1","2","0","null","imgNWTK/square.png","imgNWTK/triangle.png","imgNWTK/square.png","NaN","NaN","","",""
"564","","","bandit-task-exp6","42","1089231","0.0-8.0-0.2","female","18","australia","27741","24893","neither","neither","imgNWTK/square.png","imgNWTK/triangle.png","noninfo","eq","3.11","","33","2","2","99","null","imgNWTK/square.png","imgNWTK/triangle.png","imgNWTK/triangle.png","NaN","NaN","","",""
"648","","","bandit-task-exp6","43","1114041","0.0-8.0-0.3","female","18","australia","27741","24893","neither","neither","imgNWTK/square.png","imgNWTK/triangle.png","noninfo","eq","3.11","","34","1","2","0","null","imgNWTK/square.png","imgNWTK/triangle.png","imgNWTK/square.png","NaN","NaN","","",""
"771","","","bandit-task-exp6","44","1139634","0.0-8.0-0.4","female","18","australia","27741","24893","neither","neither","imgNWTK/square.png","imgNWTK/triangle.png","noninfo","eq","3.11","","35","2","1","0","null","imgNWTK/triangle.png","imgNWTK/square.png","imgNWTK/triangle.png","NaN","NaN","","",""
"1406","","","bandit-task-exp6","45","1170551","0.0-8.0-0.5","female","18","australia","27741","24893","neither","neither","imgNWTK/square.png","imgNWTK/triangle.png","noninfo","eq","3.11","","36","1","2","0","null","imgNWTK/triangle.png","imgNWTK/square.png","imgNWTK/square.png","NaN","NaN","","",""
"3364","","","bandit-task-exp6","46","1196706","0.0-8.0-0.6","female","18","australia","27741","24893","neither","neither","imgNWTK/square.png","imgNWTK/triangle.png","noninfo","eq","3.11","","37","1","1","100","null","imgNWTK/square.png","imgNWTK/triangle.png","imgNWTK/square.png","NaN","NaN","","",""
"5564","","","bandit-task-exp6","47","1232349","0.0-8.0-0.7","female","18","australia","27741","24893","neither","neither","imgNWTK/square.png","imgNWTK/triangle.png","noninfo","eq","3.11","","38","2","2","105","null","imgNWTK/triangle.png","imgNWTK/square.png","imgNWTK/triangle.png","NaN","NaN","","",""
"620","","","bandit-task-exp6","48","1261130","0.0-8.0-0.8","female","18","australia","27741","24893","neither","neither","imgNWTK/square.png","imgNWTK/triangle.png","noninfo","eq","3.11","","39","1","1","94","null","imgNWTK/square.png","imgNWTK/triangle.png","imgNWTK/square.png","NaN","NaN","","",""
"2601","","","bandit-task-exp6","49","1305739","0.0-8.0-0.9","female","18","australia","27741","24893","neither","neither","imgNWTK/square.png","imgNWTK/triangle.png","noninfo","eq","3.11","","40","2","1","0","null","imgNWTK/square.png","imgNWTK/triangle.png","imgNWTK/triangle.png","NaN","NaN","","",""
"2732","","","bandit-task-exp6","50","1338125","0.0-8.0-0.10","female","18","australia","27741","24893","neither","neither","imgNWTK/square.png","imgNWTK/triangle.png","noninfo","eq","3.11","","41","2","1","0","null","imgNWTK/triangle.png","imgNWTK/square.png","imgNWTK/triangle.png","NaN","NaN","","",""
"2512","","","bandit-task-exp6","51","1369397","0.0-8.0-0.11","female","18","australia","27741","24893","neither","neither","imgNWTK/square.png","imgNWTK/triangle.png","noninfo","eq","3.11","","42","1","1","97","null","imgNWTK/triangle.png","imgNWTK/square.png","imgNWTK/square.png","NaN","NaN","","",""
"671","","","bandit-task-exp6","52","1403215","0.0-8.0-0.12","female","18","australia","27741","24893","neither","neither","imgNWTK/square.png","imgNWTK/triangle.png","noninfo","eq","3.11","","43","2","1","0","null","imgNWTK/triangle.png","imgNWTK/square.png","imgNWTK/triangle.png","NaN","NaN","","",""
"2087","","","bandit-task-exp6","53","1436775","0.0-8.0-0.13","female","18","australia","27741","24893","neither","neither","imgNWTK/square.png","imgNWTK/triangle.png","noninfo","eq","3.11","","44","1","2","0","null","imgNWTK/square.png","imgNWTK/triangle.png","imgNWTK/square.png","NaN","NaN","","",""
"6977","","","bandit-task-exp6","54","1468699","0.0-8.0-0.14","female","18","australia","27741","24893","neither","neither","imgNWTK/square.png","imgNWTK/triangle.png","noninfo","eq","3.11","","45","1","1","108","null","imgNWTK/triangle.png","imgNWTK/square.png","imgNWTK/square.png","NaN","NaN","","",""
"null","<p><b> Congratulations, you have finished this block. </b> </p><p>Please take a short break before moving onto the next block.</p><p>The next block will start after a 15 second break.</p><b>Remember, the point rewards are the same between blocks","","html-keyboard-response","55","1483706","0.0-9.0","female","18","australia","27741","24893","neither","neither","imgNWTK/square.png","imgNWTK/triangle.png","noninfo","eq","3.11","","","","","","","","","","","","null","",""
"43966","","","bandit-task-exp6","56","1555950","0.0-10.0-0.0","female","18","australia","27741","24893","neither","neither","imgNWTK/square.png","imgNWTK/triangle.png","noninfo","eq","3.11","","46","1","1","110","null","imgNWTK/triangle.png","imgNWTK/square.png","imgNWTK/square.png","97","108","","",""
"7428","","","bandit-task-exp6","57","1589034","0.0-10.0-0.1","female","18","australia","27741","24893","neither","neither","imgNWTK/square.png","imgNWTK/triangle.png","noninfo","eq","3.11","","47","1","2","0","null","imgNWTK/triangle.png","imgNWTK/square.png","imgNWTK/square.png","98","102","","",""
"26749","","","bandit-task-exp6","58","1642672","0.0-10.0-0.2","female","18","australia","27741","24893","neither","neither","imgNWTK/square.png","imgNWTK/triangle.png","noninfo","eq","3.11","","48","2","2","98","null","imgNWTK/square.png","imgNWTK/triangle.png","imgNWTK/triangle.png","0","104","","",""
"19524","","","bandit-task-exp6","59","1689749","0.0-10.0-0.3","female","18","australia","27741","24893","neither","neither","imgNWTK/square.png","imgNWTK/triangle.png","noninfo","eq","3.11","","49","1","1","90","null","imgNWTK/triangle.png","imgNWTK/square.png","imgNWTK/square.png","0","94","","",""
"13165","","","bandit-task-exp6","60","1725847","0.0-10.0-0.4","female","18","australia","27741","24893","neither","neither","imgNWTK/square.png","imgNWTK/triangle.png","noninfo","eq","3.11","","50","2","2","100","null","imgNWTK/triangle.png","imgNWTK/square.png","imgNWTK/triangle.png","0","104","","",""
"7591","","","bandit-task-exp6","61","1772757","0.0-10.0-0.5","female","18","australia","27741","24893","neither","neither","imgNWTK/square.png","imgNWTK/triangle.png","noninfo","eq","3.11","","51","1","1","102","null","imgNWTK/triangle.png","imgNWTK/square.png","imgNWTK/square.png","0","102","","",""
"6985","","","bandit-task-exp6","62","1803781","0.0-10.0-0.6","female","18","australia","27741","24893","neither","neither","imgNWTK/square.png","imgNWTK/triangle.png","noninfo","eq","3.11","","52","1","2","0","null","imgNWTK/square.png","imgNWTK/triangle.png","imgNWTK/square.png","0","98","","",""
"4643","","","bandit-task-exp6","63","1856180","0.0-10.0-0.7","female","18","australia","27741","24893","neither","neither","imgNWTK/square.png","imgNWTK/triangle.png","noninfo","eq","3.11","","53","2","1","0","null","imgNWTK/square.png","imgNWTK/triangle.png","imgNWTK/triangle.png","0","104","","",""
"6069","","","bandit-task-exp6","64","1885579","0.0-10.0-0.8","female","18","australia","27741","24893","neither","neither","imgNWTK/square.png","imgNWTK/triangle.png","noninfo","eq","3.11","","54","2","1","0","null","imgNWTK/triangle.png","imgNWTK/square.png","imgNWTK/triangle.png","0","102","","",""
"4746","","","bandit-task-exp6","65","1912248","0.0-10.0-0.9","female","18","australia","27741","24893","neither","neither","imgNWTK/square.png","imgNWTK/triangle.png","noninfo","eq","3.11","","55","1","2","0","null","imgNWTK/square.png","imgNWTK/triangle.png","imgNWTK/square.png","102","0","","",""
"7376","","","bandit-task-exp6","66","1961341","0.0-10.0-0.10","female","18","australia","27741","24893","neither","neither","imgNWTK/square.png","imgNWTK/triangle.png","noninfo","eq","3.11","","56","2","2","95","null","imgNWTK/triangle.png","imgNWTK/square.png","imgNWTK/triangle.png","98","0","","",""
"7209","","","bandit-task-exp6","67","1992809","0.0-10.0-0.11","female","18","australia","27741","24893","neither","neither","imgNWTK/square.png","imgNWTK/triangle.png","noninfo","eq","3.11","","57","1","2","0","null","imgNWTK/triangle.png","imgNWTK/square.png","imgNWTK/square.png","0","108","","",""
"13291","","","bandit-task-exp6","68","2029725","0.0-10.0-0.12","female","18","australia","27741","24893","neither","neither","imgNWTK/square.png","imgNWTK/triangle.png","noninfo","eq","3.11","","58","1","1","107","null","imgNWTK/triangle.png","imgNWTK/square.png","imgNWTK/square.png","94","0","","",""
"8693","","","bandit-task-exp6","69","2112149","0.0-10.0-0.13","female","18","australia","27741","24893","neither","neither","imgNWTK/square.png","imgNWTK/triangle.png","noninfo","eq","3.11","","59","1","2","0","null","imgNWTK/square.png","imgNWTK/triangle.png","imgNWTK/square.png","108","0","","",""
"4811","","","bandit-task-exp6","70","2139464","0.0-10.0-0.14","female","18","australia","27741","24893","neither","neither","imgNWTK/square.png","imgNWTK/triangle.png","noninfo","eq","3.11","","60","1","1","98","null","imgNWTK/triangle.png","imgNWTK/square.png","imgNWTK/square.png","0","104","","",""
"2481","<p> Congratulations, you have finished the main part of the experiment. </p><p>Before you finish, we have a few short questions about the options and outcomes you saw in the task.</p>","0","html-button-response","71","2141947","0.0-11.0","female","18","australia","27741","24893","neither","neither","imgNWTK/square.png","imgNWTK/triangle.png","noninfo","eq","3.11","","","","","","","","","","","","","",""
"7788","<p><b>Now, imagine that you clicked on the below button for another 10 trials (this includes <i> BOTH WIN and NO-WIN trials</i>).</p> <img src= 'imgNWTK/triangle.png'></img></br></br> <p><b>Please type the reward (number of points) you would expect to receive on every trial.</br> Click start to begin.</p>","0","html-button-response","72","2149736","0.0-12.0","female","18","australia","27741","24893","neither","neither","imgNWTK/square.png","imgNWTK/triangle.png","noninfo","eq","3.11","","","","","","","","","","","","","",""
"46420.800000071526","","","survey-number","73","2196162","0.0-13.0-0.0","female","18","australia","27741","24893","neither","neither","imgNWTK/square.png","imgNWTK/triangle.png","noninfo","eq","3.11","{""undefined"":""0""}","","","","","","","","","","","","imgNWTK/triangle.png",""
"11014.700000047684","","","survey-number","74","2207181","0.0-13.0-0.1","female","18","australia","27741","24893","neither","neither","imgNWTK/square.png","imgNWTK/triangle.png","noninfo","eq","3.11","{""undefined"":""92""}","","","","","","","","","","","","imgNWTK/triangle.png",""
"4614.399999976158","","","survey-number","75","2211799","0.0-13.0-0.2","female","18","australia","27741","24893","neither","neither","imgNWTK/square.png","imgNWTK/triangle.png","noninfo","eq","3.11","{""undefined"":""99""}","","","","","","","","","","","","imgNWTK/triangle.png",""
"1454.2000000476837","","","survey-number","76","2213258","0.0-13.0-0.3","female","18","australia","27741","24893","neither","neither","imgNWTK/square.png","imgNWTK/triangle.png","noninfo","eq","3.11","{""undefined"":""0""}","","","","","","","","","","","","imgNWTK/triangle.png",""
"3486.7999999523163","","","survey-number","77","2216749","0.0-13.0-0.4","female","18","australia","27741","24893","neither","neither","imgNWTK/square.png","imgNWTK/triangle.png","noninfo","eq","3.11","{""undefined"":""0""}","","","","","","","","","","","","imgNWTK/triangle.png",""
"7134.600000023842","","","survey-number","78","2223888","0.0-13.0-0.5","female","18","australia","27741","24893","neither","neither","imgNWTK/square.png","imgNWTK/triangle.png","noninfo","eq","3.11","{""undefined"":""105""}","","","","","","","","","","","","imgNWTK/triangle.png",""
"738.4000000953674","","","survey-number","79","2224630","0.0-13.0-0.6","female","18","australia","27741","24893","neither","neither","imgNWTK/square.png","imgNWTK/triangle.png","noninfo","eq","3.11","{""undefined"":""0""}","","","","","","","","","","","","imgNWTK/triangle.png",""
"638","","","survey-number","80","2225272","0.0-13.0-0.7","female","18","australia","27741","24893","neither","neither","imgNWTK/square.png","imgNWTK/triangle.png","noninfo","eq","3.11","{""undefined"":""0""}","","","","","","","","","","","","imgNWTK/triangle.png",""
"5208.100000023842","","","survey-number","81","2230484","0.0-13.0-0.8","female","18","australia","27741","24893","neither","neither","imgNWTK/square.png","imgNWTK/triangle.png","noninfo","eq","3.11","{""undefined"":""0""}","","","","","","","","","","","","imgNWTK/triangle.png",""
"26555.599999904633","","","survey-number","82","2257045","0.0-13.0-0.9","female","18","australia","27741","24893","neither","neither","imgNWTK/square.png","imgNWTK/triangle.png","noninfo","eq","3.11","{""undefined"":""94""}","","","","","","","","","","","","imgNWTK/triangle.png",""
"2597","<p><b>Imagine that you clicked on the below button for another 10 trials (this includes <i> both WIN and NO-WIN trials</i>).</p> <img src= 'imgNWTK/square.png'></img></br></br> <p><b>Please type the reward (number of points) you would expect to receive on every trial.</br> Click start to begin.</p>","0","html-button-response","83","2259644","0.0-14.0","female","18","australia","27741","24893","neither","neither","imgNWTK/square.png","imgNWTK/triangle.png","noninfo","eq","3.11","","","","","","","","","","","","","",""
"1250.6000000238419","","","survey-number","84","2260900","0.0-15.0-0.0","female","18","australia","27741","24893","neither","neither","imgNWTK/square.png","imgNWTK/triangle.png","noninfo","eq","3.11","{""undefined"":""102""}","","","","","","","","","","","","imgNWTK/square.png",""
"758.6000000238419","","","survey-number","85","2261663","0.0-15.0-0.1","female","18","australia","27741","24893","neither","neither","imgNWTK/square.png","imgNWTK/triangle.png","noninfo","eq","3.11","{""undefined"":""0""}","","","","","","","","","","","","imgNWTK/square.png",""
"1863.9000000953674","","","survey-number","86","2263530","0.0-15.0-0.2","female","18","australia","27741","24893","neither","neither","imgNWTK/square.png","imgNWTK/triangle.png","noninfo","eq","3.11","{""undefined"":""0""}","","","","","","","","","","","","imgNWTK/square.png",""
"1662.1000000238419","","","survey-number","87","2265195","0.0-15.0-0.3","female","18","australia","27741","24893","neither","neither","imgNWTK/square.png","imgNWTK/triangle.png","noninfo","eq","3.11","{""undefined"":""100""}","","","","","","","","","","","","imgNWTK/square.png",""
"892.1000000238419","","","survey-number","88","2266092","0.0-15.0-0.4","female","18","australia","27741","24893","neither","neither","imgNWTK/square.png","imgNWTK/triangle.png","noninfo","eq","3.11","{""undefined"":""0""}","","","","","","","","","","","","imgNWTK/square.png",""
"793","","","survey-number","89","2266889","0.0-15.0-0.5","female","18","australia","27741","24893","neither","neither","imgNWTK/square.png","imgNWTK/triangle.png","noninfo","eq","3.11","{""undefined"":""105""}","","","","","","","","","","","","imgNWTK/square.png",""
"1475.1000000238419","","","survey-number","90","2268369","0.0-15.0-0.6","female","18","australia","27741","24893","neither","neither","imgNWTK/square.png","imgNWTK/triangle.png","noninfo","eq","3.11","{""undefined"":""0""}","","","","","","","","","","","","imgNWTK/square.png",""
"970.2000000476837","","","survey-number","91","2269344","0.0-15.0-0.7","female","18","australia","27741","24893","neither","neither","imgNWTK/square.png","imgNWTK/triangle.png","noninfo","eq","3.11","{""undefined"":""0""}","","","","","","","","","","","","imgNWTK/square.png",""
"3287.2000000476837","","","survey-number","92","2272635","0.0-15.0-0.8","female","18","australia","27741","24893","neither","neither","imgNWTK/square.png","imgNWTK/triangle.png","noninfo","eq","3.11","{""undefined"":""108""}","","","","","","","","","","","","imgNWTK/square.png",""
"665.1000000238419","","","survey-number","93","2273305","0.0-15.0-0.9","female","18","australia","27741","24893","neither","neither","imgNWTK/square.png","imgNWTK/triangle.png","noninfo","eq","3.11","{""undefined"":""0""}","","","","","","","","","","","","imgNWTK/square.png",""
"49380.90000009537","","","survey-number","94","2322692","0.0-16.0","female","18","australia","27741","24893","neither","neither","imgNWTK/square.png","imgNWTK/triangle.png","noninfo","eq","3.11","{""undefined"":""350""}","","","","","","","","","","","","","imgNWTK/triangle.png"
"5743.600000023842","","","survey-number","95","2328440","0.0-17.0","female","18","australia","27741","24893","neither","neither","imgNWTK/square.png","imgNWTK/triangle.png","noninfo","eq","3.11","{""undefined"":""400""}","","","","","","","","","","","","","imgNWTK/square.png"
"24549","<p style=""text-align:left;"">Great! We are almost at the end of the study... (Please do not close the browser window yet.)</p><p> Your final points balance is 3114, which equals to a bonus payment of $3.11. Please collect your payment from Mathews Building Room 721 (Mon-Fri 9am-5pm); please email amy.x.li@unsw.edu.au at least 24 hours prior to collection so that this is ready for you.</p><p style=""text-align:left;"">To view the debriefing form, please click <a href=""./imgNWTK/debrief_3205.pdf"" target=""_blank"">here</a> to download a copy.</p><p style=""text-align:left;"">Then, <b>please click the below button</b> to confirm that you have received your debrief and to complete the study. Upon clicking ""Finish!"", your SONA credit will be automatically assigned.</p>","0","html-button-response","96","2352992","0.0-18.0","female","18","australia","27741","24893","neither","neither","imgNWTK/square.png","imgNWTK/triangle.png","noninfo","eq","3.11","","","","","","","","","","","","","",""
