"rt","stimulus","button_pressed","trial_type","trial_index","time_elapsed","internal_node_id","gender","age","language","PID","sona_id","subStim","optStim","stim1","stim2","infoCond","optimCond","bonus","responses","banditTrial","choice","cue","feedback","estimateData","leftOption","rightOption","choiceName","leftInput","rightInput","key_press","postQ","singleEst"
"11108","<p>Thank you for signing up to participate in SONA Study 476! <br> During this study, please focus on the experiment and refrain from activities such as:</p>- <b>Switching to other tabs on your browser (this will be monitored via the experiment)</br> - Using your mobile phone/cell phone</br> - Communicating with others</br></br></b><p>This way, you are helping to provide data that is useful for psychological research. We thank you for your cooperation!</p>","0","html-button-response","0","11112","0.0-0.0","female","18","Australia","34179","24959","imgNWTK/FindOutNow.jpg","imgNWTK/KeepItSecret.jpg","imgNWTK/KeepItSecret.jpg","imgNWTK/FindOutNow.jpg","info","optim","3.44","","","","","","","","","","","","","",""
"946","<p>Welcome to the experiment!</p><p>You will now read some instructions about the task. Press the 'Next' button to continue. </p>","0","html-button-response","1","12061","0.0-1.0","female","18","Australia","34179","24959","imgNWTK/FindOutNow.jpg","imgNWTK/KeepItSecret.jpg","imgNWTK/KeepItSecret.jpg","imgNWTK/FindOutNow.jpg","info","optim","3.44","","","","","","","","","","","","","",""
"9214","<p> On each trial throughout the experiment you will choose between the options </br><b> Find Out Now </b> and <b> Keep It Secret </b>, as shown below.</p><div><div style= 'float: left; width: 300px; margin: 10px 10px;'><img src= 'imgNWTK/KeepItSecret.jpg'></img></div><div style= 'float: right; width: 300px; margin: 10px 10px;'><img src= 'imgNWTK/FindOutNow.jpg'></img></div></div><br/><br/><br/><br/><br/><br/><br/><br/><br/><br/><br/><p>Each option results in winning points or receiving 0 points.</br>There is a 50% chance of either winning or receiving 0 points.</p><p>You won't receive the outcome until after a <b> 20 second delay</b>. However, selecting the Find Out Now option will allow you to find out about the outcome early, whereas the Keep It Secret option will not. </p>","0","html-button-response","2","21278","0.0-2.0-0.0","female","18","Australia","34179","24959","imgNWTK/FindOutNow.jpg","imgNWTK/KeepItSecret.jpg","imgNWTK/KeepItSecret.jpg","imgNWTK/FindOutNow.jpg","info","optim","3.44","","","","","","","","","","","","","",""
"8032","<img src= 'cues/Experiment6.png'></img><p>As seen above, when choosing the <b>'Find Out Now'</b> option, you will receive either a happy face or sad face.</br>The happy face means you will win points after the delay, whereas the sad face means you will receive 0 points.</br></p><p> When choosing the <b> 'Keep it Secret' </b> option you will receive a confused face.</br> This face appears regardless of whether you are going to win points or not. </p>In short, choosing 'Find Out Now' allows you to find out the outcome before you experience it (after the delay).</br></br>","0","html-button-response","3","29312","0.0-2.0-1.0","female","18","Australia","34179","24959","imgNWTK/FindOutNow.jpg","imgNWTK/KeepItSecret.jpg","imgNWTK/KeepItSecret.jpg","imgNWTK/FindOutNow.jpg","info","optim","3.44","","","","","","","","","","","","","",""
"7530","<img src= 'cues/winTrials_info.png' width = '1200'></img><p>To reiterate, 50% of the outcomes of each option will be WIN TRIALS, and the other 50% will be NO-WIN TRIALS.","0","html-button-response","4","36846","0.0-2.0-2.0","female","18","Australia","34179","24959","imgNWTK/FindOutNow.jpg","imgNWTK/KeepItSecret.jpg","imgNWTK/KeepItSecret.jpg","imgNWTK/FindOutNow.jpg","info","optim","3.44","","","","","","","","","","","","","",""
"5397","<p> There will be <b>four blocks</b> in the experiment.</br>You will be given a short 15 second break between each block.</p><p><b>The points and the options will remain the same between the blocks.</b></p>The blocks are there just to give you a small break.</br></br><p>The points you earn in the task are also equal to <b> actual money</b>.</br> <b>1000 points is equal to $1.</b></p><p>This is the rate you will be paid at the experiment's end.","0","html-button-response","5","42245","0.0-2.0-3.0","female","18","Australia","34179","24959","imgNWTK/FindOutNow.jpg","imgNWTK/KeepItSecret.jpg","imgNWTK/KeepItSecret.jpg","imgNWTK/FindOutNow.jpg","info","optim","3.44","","","","","","","","","","","","","",""
"14626","","","survey-multi-choice","6","56882","0.0-2.0-4.0","female","18","Australia","34179","24959","imgNWTK/FindOutNow.jpg","imgNWTK/KeepItSecret.jpg","imgNWTK/KeepItSecret.jpg","imgNWTK/FindOutNow.jpg","info","optim","3.44","{""Q0"":""20 Seconds"",""Q1"":""True"",""Q2"":""Equally"",""Q3"":""False""}","","","","","","","","","","","","",""
"1656","Unfortunately, at least one of your answers was incorrect. Let's read the instructions again.<p> ","0","html-button-response","7","58544","0.0-2.0-5.0-0.0","female","18","Australia","34179","24959","imgNWTK/FindOutNow.jpg","imgNWTK/KeepItSecret.jpg","imgNWTK/KeepItSecret.jpg","imgNWTK/FindOutNow.jpg","info","optim","3.44","","","","","","","","","","","","","",""
"3465","<p> On each trial throughout the experiment you will choose between the options </br><b> Find Out Now </b> and <b> Keep It Secret </b>, as shown below.</p><div><div style= 'float: left; width: 300px; margin: 10px 10px;'><img src= 'imgNWTK/KeepItSecret.jpg'></img></div><div style= 'float: right; width: 300px; margin: 10px 10px;'><img src= 'imgNWTK/FindOutNow.jpg'></img></div></div><br/><br/><br/><br/><br/><br/><br/><br/><br/><br/><br/><p>Each option results in winning points or receiving 0 points.</br>There is a 50% chance of either winning or receiving 0 points.</p><p>You won't receive the outcome until after a <b> 20 second delay</b>. However, selecting the Find Out Now option will allow you to find out about the outcome early, whereas the Keep It Secret option will not. </p>","0","html-button-response","8","62013","0.0-2.1-0.1","female","18","Australia","34179","24959","imgNWTK/FindOutNow.jpg","imgNWTK/KeepItSecret.jpg","imgNWTK/KeepItSecret.jpg","imgNWTK/FindOutNow.jpg","info","optim","3.44","","","","","","","","","","","","","",""
"6179","<img src= 'cues/Experiment6.png'></img><p>As seen above, when choosing the <b>'Find Out Now'</b> option, you will receive either a happy face or sad face.</br>The happy face means you will win points after the delay, whereas the sad face means you will receive 0 points.</br></p><p> When choosing the <b> 'Keep it Secret' </b> option you will receive a confused face.</br> This face appears regardless of whether you are going to win points or not. </p>In short, choosing 'Find Out Now' allows you to find out the outcome before you experience it (after the delay).</br></br>","0","html-button-response","9","68195","0.0-2.1-1.1","female","18","Australia","34179","24959","imgNWTK/FindOutNow.jpg","imgNWTK/KeepItSecret.jpg","imgNWTK/KeepItSecret.jpg","imgNWTK/FindOutNow.jpg","info","optim","3.44","","","","","","","","","","","","","",""
"2714","<img src= 'cues/winTrials_info.png' width = '1200'></img><p>To reiterate, 50% of the outcomes of each option will be WIN TRIALS, and the other 50% will be NO-WIN TRIALS.","0","html-button-response","10","70913","0.0-2.1-2.1","female","18","Australia","34179","24959","imgNWTK/FindOutNow.jpg","imgNWTK/KeepItSecret.jpg","imgNWTK/KeepItSecret.jpg","imgNWTK/FindOutNow.jpg","info","optim","3.44","","","","","","","","","","","","","",""
"1281","<p> There will be <b>four blocks</b> in the experiment.</br>You will be given a short 15 second break between each block.</p><p><b>The points and the options will remain the same between the blocks.</b></p>The blocks are there just to give you a small break.</br></br><p>The points you earn in the task are also equal to <b> actual money</b>.</br> <b>1000 points is equal to $1.</b></p><p>This is the rate you will be paid at the experiment's end.","0","html-button-response","11","72196","0.0-2.1-3.1","female","18","Australia","34179","24959","imgNWTK/FindOutNow.jpg","imgNWTK/KeepItSecret.jpg","imgNWTK/KeepItSecret.jpg","imgNWTK/FindOutNow.jpg","info","optim","3.44","","","","","","","","","","","","","",""
"12473","","","survey-multi-choice","12","84679","0.0-2.1-4.1","female","18","Australia","34179","24959","imgNWTK/FindOutNow.jpg","imgNWTK/KeepItSecret.jpg","imgNWTK/KeepItSecret.jpg","imgNWTK/FindOutNow.jpg","info","optim","3.44","{""Q0"":""20 Seconds"",""Q1"":""True"",""Q2"":""Differently"",""Q3"":""True""}","","","","","","","","","","","","",""
"976","Unfortunately, at least one of your answers was incorrect. Let's read the instructions again.<p> ","0","html-button-response","13","85661","0.0-2.1-5.1-0.1","female","18","Australia","34179","24959","imgNWTK/FindOutNow.jpg","imgNWTK/KeepItSecret.jpg","imgNWTK/KeepItSecret.jpg","imgNWTK/FindOutNow.jpg","info","optim","3.44","","","","","","","","","","","","","",""
"914","<p> On each trial throughout the experiment you will choose between the options </br><b> Find Out Now </b> and <b> Keep It Secret </b>, as shown below.</p><div><div style= 'float: left; width: 300px; margin: 10px 10px;'><img src= 'imgNWTK/KeepItSecret.jpg'></img></div><div style= 'float: right; width: 300px; margin: 10px 10px;'><img src= 'imgNWTK/FindOutNow.jpg'></img></div></div><br/><br/><br/><br/><br/><br/><br/><br/><br/><br/><br/><p>Each option results in winning points or receiving 0 points.</br>There is a 50% chance of either winning or receiving 0 points.</p><p>You won't receive the outcome until after a <b> 20 second delay</b>. However, selecting the Find Out Now option will allow you to find out about the outcome early, whereas the Keep It Secret option will not. </p>","0","html-button-response","14","86578","0.0-2.2-0.2","female","18","Australia","34179","24959","imgNWTK/FindOutNow.jpg","imgNWTK/KeepItSecret.jpg","imgNWTK/KeepItSecret.jpg","imgNWTK/FindOutNow.jpg","info","optim","3.44","","","","","","","","","","","","","",""
"3014","<img src= 'cues/Experiment6.png'></img><p>As seen above, when choosing the <b>'Find Out Now'</b> option, you will receive either a happy face or sad face.</br>The happy face means you will win points after the delay, whereas the sad face means you will receive 0 points.</br></p><p> When choosing the <b> 'Keep it Secret' </b> option you will receive a confused face.</br> This face appears regardless of whether you are going to win points or not. </p>In short, choosing 'Find Out Now' allows you to find out the outcome before you experience it (after the delay).</br></br>","0","html-button-response","15","89596","0.0-2.2-1.2","female","18","Australia","34179","24959","imgNWTK/FindOutNow.jpg","imgNWTK/KeepItSecret.jpg","imgNWTK/KeepItSecret.jpg","imgNWTK/FindOutNow.jpg","info","optim","3.44","","","","","","","","","","","","","",""
"898","<img src= 'cues/winTrials_info.png' width = '1200'></img><p>To reiterate, 50% of the outcomes of each option will be WIN TRIALS, and the other 50% will be NO-WIN TRIALS.","0","html-button-response","16","90496","0.0-2.2-2.2","female","18","Australia","34179","24959","imgNWTK/FindOutNow.jpg","imgNWTK/KeepItSecret.jpg","imgNWTK/KeepItSecret.jpg","imgNWTK/FindOutNow.jpg","info","optim","3.44","","","","","","","","","","","","","",""
"847","<p> There will be <b>four blocks</b> in the experiment.</br>You will be given a short 15 second break between each block.</p><p><b>The points and the options will remain the same between the blocks.</b></p>The blocks are there just to give you a small break.</br></br><p>The points you earn in the task are also equal to <b> actual money</b>.</br> <b>1000 points is equal to $1.</b></p><p>This is the rate you will be paid at the experiment's end.","0","html-button-response","17","91345","0.0-2.2-3.2","female","18","Australia","34179","24959","imgNWTK/FindOutNow.jpg","imgNWTK/KeepItSecret.jpg","imgNWTK/KeepItSecret.jpg","imgNWTK/FindOutNow.jpg","info","optim","3.44","","","","","","","","","","","","","",""
"4732","","","survey-multi-choice","18","96082","0.0-2.2-4.2","female","18","Australia","34179","24959","imgNWTK/FindOutNow.jpg","imgNWTK/KeepItSecret.jpg","imgNWTK/KeepItSecret.jpg","imgNWTK/FindOutNow.jpg","info","optim","3.44","{""Q0"":""20 Seconds"",""Q1"":""True"",""Q2"":""Equally"",""Q3"":""True""}","","","","","","","","","","","","",""
"1690","<p> Well done, all your answers were correct! <br> The experiment is about to start now. <br/> Click start to continue, or email your researcher <b>(amy.x.li@unsw.edu.au)</b> if you have any questions before starting.","0","html-button-response","19","97777","0.0-3.0","female","18","Australia","34179","24959","imgNWTK/FindOutNow.jpg","imgNWTK/KeepItSecret.jpg","imgNWTK/KeepItSecret.jpg","imgNWTK/FindOutNow.jpg","info","optim","3.44","","","","","","","","","","","","","",""
"2011","","","bandit-task-exp6","20","102732","0.0-4.0-0.0","female","18","Australia","34179","24959","imgNWTK/FindOutNow.jpg","imgNWTK/KeepItSecret.jpg","imgNWTK/KeepItSecret.jpg","imgNWTK/FindOutNow.jpg","info","optim","3.44","","1","1","2","0","null","imgNWTK/KeepItSecret.jpg","imgNWTK/FindOutNow.jpg","imgNWTK/KeepItSecret.jpg","NaN","NaN","","",""
"1475","","","bandit-task-exp6","21","107030","0.0-4.0-0.1","female","18","Australia","34179","24959","imgNWTK/FindOutNow.jpg","imgNWTK/KeepItSecret.jpg","imgNWTK/KeepItSecret.jpg","imgNWTK/FindOutNow.jpg","info","optim","3.44","","2","2","2","118","null","imgNWTK/KeepItSecret.jpg","imgNWTK/FindOutNow.jpg","imgNWTK/FindOutNow.jpg","NaN","NaN","","",""
"1277","","","bandit-task-exp6","22","110863","0.0-4.0-0.2","female","18","Australia","34179","24959","imgNWTK/FindOutNow.jpg","imgNWTK/KeepItSecret.jpg","imgNWTK/KeepItSecret.jpg","imgNWTK/FindOutNow.jpg","info","optim","3.44","","3","1","2","0","null","imgNWTK/KeepItSecret.jpg","imgNWTK/FindOutNow.jpg","imgNWTK/KeepItSecret.jpg","NaN","NaN","","",""
"1428","","","bandit-task-exp6","23","114982","0.0-4.0-0.3","female","18","Australia","34179","24959","imgNWTK/FindOutNow.jpg","imgNWTK/KeepItSecret.jpg","imgNWTK/KeepItSecret.jpg","imgNWTK/FindOutNow.jpg","info","optim","3.44","","4","2","2","113","null","imgNWTK/FindOutNow.jpg","imgNWTK/KeepItSecret.jpg","imgNWTK/FindOutNow.jpg","NaN","NaN","","",""
"1057","","","bandit-task-exp6","24","118679","0.0-4.0-0.4","female","18","Australia","34179","24959","imgNWTK/FindOutNow.jpg","imgNWTK/KeepItSecret.jpg","imgNWTK/KeepItSecret.jpg","imgNWTK/FindOutNow.jpg","info","optim","3.44","","5","2","1","0","null","imgNWTK/KeepItSecret.jpg","imgNWTK/FindOutNow.jpg","imgNWTK/FindOutNow.jpg","NaN","NaN","","",""
"611","","","bandit-task-exp6","25","121796","0.0-4.0-0.5","female","18","Australia","34179","24959","imgNWTK/FindOutNow.jpg","imgNWTK/KeepItSecret.jpg","imgNWTK/KeepItSecret.jpg","imgNWTK/FindOutNow.jpg","info","optim","3.44","","6","2","2","115","null","imgNWTK/KeepItSecret.jpg","imgNWTK/FindOutNow.jpg","imgNWTK/FindOutNow.jpg","NaN","NaN","","",""
"909","","","bandit-task-exp6","26","125315","0.0-4.0-0.6","female","18","Australia","34179","24959","imgNWTK/FindOutNow.jpg","imgNWTK/KeepItSecret.jpg","imgNWTK/KeepItSecret.jpg","imgNWTK/FindOutNow.jpg","info","optim","3.44","","7","2","2","128","null","imgNWTK/FindOutNow.jpg","imgNWTK/KeepItSecret.jpg","imgNWTK/FindOutNow.jpg","NaN","NaN","","",""
"1375","","","bandit-task-exp6","27","129399","0.0-4.0-0.7","female","18","Australia","34179","24959","imgNWTK/FindOutNow.jpg","imgNWTK/KeepItSecret.jpg","imgNWTK/KeepItSecret.jpg","imgNWTK/FindOutNow.jpg","info","optim","3.44","","8","2","2","121","null","imgNWTK/KeepItSecret.jpg","imgNWTK/FindOutNow.jpg","imgNWTK/FindOutNow.jpg","NaN","NaN","","",""
"1175","","","bandit-task-exp6","28","133198","0.0-4.0-0.8","female","18","Australia","34179","24959","imgNWTK/FindOutNow.jpg","imgNWTK/KeepItSecret.jpg","imgNWTK/KeepItSecret.jpg","imgNWTK/FindOutNow.jpg","info","optim","3.44","","9","2","2","115","null","imgNWTK/KeepItSecret.jpg","imgNWTK/FindOutNow.jpg","imgNWTK/FindOutNow.jpg","NaN","NaN","","",""
"941","","","bandit-task-exp6","29","136496","0.0-4.0-0.9","female","18","Australia","34179","24959","imgNWTK/FindOutNow.jpg","imgNWTK/KeepItSecret.jpg","imgNWTK/KeepItSecret.jpg","imgNWTK/FindOutNow.jpg","info","optim","3.44","","10","2","2","118","null","imgNWTK/FindOutNow.jpg","imgNWTK/KeepItSecret.jpg","imgNWTK/FindOutNow.jpg","NaN","NaN","","",""
"1112","","","bandit-task-exp6","30","140264","0.0-4.0-0.10","female","18","Australia","34179","24959","imgNWTK/FindOutNow.jpg","imgNWTK/KeepItSecret.jpg","imgNWTK/KeepItSecret.jpg","imgNWTK/FindOutNow.jpg","info","optim","3.44","","11","2","1","0","null","imgNWTK/KeepItSecret.jpg","imgNWTK/FindOutNow.jpg","imgNWTK/FindOutNow.jpg","NaN","NaN","","",""
"1427","","","bandit-task-exp6","31","144482","0.0-4.0-0.11","female","18","Australia","34179","24959","imgNWTK/FindOutNow.jpg","imgNWTK/KeepItSecret.jpg","imgNWTK/KeepItSecret.jpg","imgNWTK/FindOutNow.jpg","info","optim","3.44","","12","2","2","112","null","imgNWTK/KeepItSecret.jpg","imgNWTK/FindOutNow.jpg","imgNWTK/FindOutNow.jpg","NaN","NaN","","",""
"975","","","bandit-task-exp6","32","147864","0.0-4.0-0.12","female","18","Australia","34179","24959","imgNWTK/FindOutNow.jpg","imgNWTK/KeepItSecret.jpg","imgNWTK/KeepItSecret.jpg","imgNWTK/FindOutNow.jpg","info","optim","3.44","","13","2","2","123","null","imgNWTK/KeepItSecret.jpg","imgNWTK/FindOutNow.jpg","imgNWTK/FindOutNow.jpg","NaN","NaN","","",""
"893","","","bandit-task-exp6","33","151128","0.0-4.0-0.13","female","18","Australia","34179","24959","imgNWTK/FindOutNow.jpg","imgNWTK/KeepItSecret.jpg","imgNWTK/KeepItSecret.jpg","imgNWTK/FindOutNow.jpg","info","optim","3.44","","14","2","1","0","null","imgNWTK/KeepItSecret.jpg","imgNWTK/FindOutNow.jpg","imgNWTK/FindOutNow.jpg","NaN","NaN","","",""
"880","","","bandit-task-exp6","34","154481","0.0-4.0-0.14","female","18","Australia","34179","24959","imgNWTK/FindOutNow.jpg","imgNWTK/KeepItSecret.jpg","imgNWTK/KeepItSecret.jpg","imgNWTK/FindOutNow.jpg","info","optim","3.44","","15","1","1","88","null","imgNWTK/FindOutNow.jpg","imgNWTK/KeepItSecret.jpg","imgNWTK/KeepItSecret.jpg","NaN","NaN","","",""
"null","<p><b> Congratulations, you have finished this block. </b> </p><p>Please take a short break before moving onto the next block.</p><p>The next block will start after a 15 second break.</p><b>Remember, the point rewards are the same between blocks","","html-keyboard-response","35","169488","0.0-5.0","female","18","Australia","34179","24959","imgNWTK/FindOutNow.jpg","imgNWTK/KeepItSecret.jpg","imgNWTK/KeepItSecret.jpg","imgNWTK/FindOutNow.jpg","info","optim","3.44","","","","","","","","","","","","null","",""
"2435","","","bandit-task-exp6","36","179331","0.0-6.0-0.0","female","18","Australia","34179","24959","imgNWTK/FindOutNow.jpg","imgNWTK/KeepItSecret.jpg","imgNWTK/KeepItSecret.jpg","imgNWTK/FindOutNow.jpg","info","optim","3.44","","16","2","1","0","null","imgNWTK/FindOutNow.jpg","imgNWTK/KeepItSecret.jpg","imgNWTK/FindOutNow.jpg","NaN","NaN","","",""
"2839","","","bandit-task-exp6","37","184775","0.0-6.0-0.1","female","18","Australia","34179","24959","imgNWTK/FindOutNow.jpg","imgNWTK/KeepItSecret.jpg","imgNWTK/KeepItSecret.jpg","imgNWTK/FindOutNow.jpg","info","optim","3.44","","17","2","2","121","null","imgNWTK/FindOutNow.jpg","imgNWTK/KeepItSecret.jpg","imgNWTK/FindOutNow.jpg","NaN","NaN","","",""
"727","","","bandit-task-exp6","38","187906","0.0-6.0-0.2","female","18","Australia","34179","24959","imgNWTK/FindOutNow.jpg","imgNWTK/KeepItSecret.jpg","imgNWTK/KeepItSecret.jpg","imgNWTK/FindOutNow.jpg","info","optim","3.44","","18","2","2","123","null","imgNWTK/FindOutNow.jpg","imgNWTK/KeepItSecret.jpg","imgNWTK/FindOutNow.jpg","NaN","NaN","","",""
"630","","","bandit-task-exp6","39","190905","0.0-6.0-0.3","female","18","Australia","34179","24959","imgNWTK/FindOutNow.jpg","imgNWTK/KeepItSecret.jpg","imgNWTK/KeepItSecret.jpg","imgNWTK/FindOutNow.jpg","info","optim","3.44","","19","2","1","0","null","imgNWTK/FindOutNow.jpg","imgNWTK/KeepItSecret.jpg","imgNWTK/FindOutNow.jpg","NaN","NaN","","",""
"612","","","bandit-task-exp6","40","193789","0.0-6.0-0.4","female","18","Australia","34179","24959","imgNWTK/FindOutNow.jpg","imgNWTK/KeepItSecret.jpg","imgNWTK/KeepItSecret.jpg","imgNWTK/FindOutNow.jpg","info","optim","3.44","","20","2","1","0","null","imgNWTK/FindOutNow.jpg","imgNWTK/KeepItSecret.jpg","imgNWTK/FindOutNow.jpg","NaN","NaN","","",""
"542","","","bandit-task-exp6","41","196703","0.0-6.0-0.5","female","18","Australia","34179","24959","imgNWTK/FindOutNow.jpg","imgNWTK/KeepItSecret.jpg","imgNWTK/KeepItSecret.jpg","imgNWTK/FindOutNow.jpg","info","optim","3.44","","21","1","1","78","null","imgNWTK/FindOutNow.jpg","imgNWTK/KeepItSecret.jpg","imgNWTK/KeepItSecret.jpg","NaN","NaN","","",""
"562","","","bandit-task-exp6","42","199604","0.0-6.0-0.6","female","18","Australia","34179","24959","imgNWTK/FindOutNow.jpg","imgNWTK/KeepItSecret.jpg","imgNWTK/KeepItSecret.jpg","imgNWTK/FindOutNow.jpg","info","optim","3.44","","22","2","2","127","null","imgNWTK/FindOutNow.jpg","imgNWTK/KeepItSecret.jpg","imgNWTK/FindOutNow.jpg","NaN","NaN","","",""
"578","","","bandit-task-exp6","43","202535","0.0-6.0-0.7","female","18","Australia","34179","24959","imgNWTK/FindOutNow.jpg","imgNWTK/KeepItSecret.jpg","imgNWTK/KeepItSecret.jpg","imgNWTK/FindOutNow.jpg","info","optim","3.44","","23","2","1","0","null","imgNWTK/KeepItSecret.jpg","imgNWTK/FindOutNow.jpg","imgNWTK/FindOutNow.jpg","NaN","NaN","","",""
"1296","","","bandit-task-exp6","44","206437","0.0-6.0-0.8","female","18","Australia","34179","24959","imgNWTK/FindOutNow.jpg","imgNWTK/KeepItSecret.jpg","imgNWTK/KeepItSecret.jpg","imgNWTK/FindOutNow.jpg","info","optim","3.44","","24","1","1","84","null","imgNWTK/FindOutNow.jpg","imgNWTK/KeepItSecret.jpg","imgNWTK/KeepItSecret.jpg","NaN","NaN","","",""
"543","","","bandit-task-exp6","45","209334","0.0-6.0-0.9","female","18","Australia","34179","24959","imgNWTK/FindOutNow.jpg","imgNWTK/KeepItSecret.jpg","imgNWTK/KeepItSecret.jpg","imgNWTK/FindOutNow.jpg","info","optim","3.44","","25","2","2","122","null","imgNWTK/FindOutNow.jpg","imgNWTK/KeepItSecret.jpg","imgNWTK/FindOutNow.jpg","NaN","NaN","","",""
"529","","","bandit-task-exp6","46","212268","0.0-6.0-0.10","female","18","Australia","34179","24959","imgNWTK/FindOutNow.jpg","imgNWTK/KeepItSecret.jpg","imgNWTK/KeepItSecret.jpg","imgNWTK/FindOutNow.jpg","info","optim","3.44","","26","1","1","75","null","imgNWTK/KeepItSecret.jpg","imgNWTK/FindOutNow.jpg","imgNWTK/KeepItSecret.jpg","NaN","NaN","","",""
"561","","","bandit-task-exp6","47","215233","0.0-6.0-0.11","female","18","Australia","34179","24959","imgNWTK/FindOutNow.jpg","imgNWTK/KeepItSecret.jpg","imgNWTK/KeepItSecret.jpg","imgNWTK/FindOutNow.jpg","info","optim","3.44","","27","2","2","130","null","imgNWTK/KeepItSecret.jpg","imgNWTK/FindOutNow.jpg","imgNWTK/FindOutNow.jpg","NaN","NaN","","",""
"779","","","bandit-task-exp6","48","218400","0.0-6.0-0.12","female","18","Australia","34179","24959","imgNWTK/FindOutNow.jpg","imgNWTK/KeepItSecret.jpg","imgNWTK/KeepItSecret.jpg","imgNWTK/FindOutNow.jpg","info","optim","3.44","","28","1","2","0","null","imgNWTK/FindOutNow.jpg","imgNWTK/KeepItSecret.jpg","imgNWTK/KeepItSecret.jpg","NaN","NaN","","",""
"911","","","bandit-task-exp6","49","221635","0.0-6.0-0.13","female","18","Australia","34179","24959","imgNWTK/FindOutNow.jpg","imgNWTK/KeepItSecret.jpg","imgNWTK/KeepItSecret.jpg","imgNWTK/FindOutNow.jpg","info","optim","3.44","","29","2","1","0","null","imgNWTK/FindOutNow.jpg","imgNWTK/KeepItSecret.jpg","imgNWTK/FindOutNow.jpg","NaN","NaN","","",""
"710","","","bandit-task-exp6","50","224768","0.0-6.0-0.14","female","18","Australia","34179","24959","imgNWTK/FindOutNow.jpg","imgNWTK/KeepItSecret.jpg","imgNWTK/KeepItSecret.jpg","imgNWTK/FindOutNow.jpg","info","optim","3.44","","30","1","2","0","null","imgNWTK/KeepItSecret.jpg","imgNWTK/FindOutNow.jpg","imgNWTK/KeepItSecret.jpg","NaN","NaN","","",""
"null","<p><b> Congratulations, you have finished this block. </b> </p><p>Please take a short break before moving onto the next block.</p><p>The next block will start after a 15 second break.</p><b>Remember, the point rewards are the same between blocks","","html-keyboard-response","51","239773","0.0-7.0","female","18","Australia","34179","24959","imgNWTK/FindOutNow.jpg","imgNWTK/KeepItSecret.jpg","imgNWTK/KeepItSecret.jpg","imgNWTK/FindOutNow.jpg","info","optim","3.44","","","","","","","","","","","","null","",""
"1087","","","bandit-task-exp6","52","243952","0.0-8.0-0.0","female","18","Australia","34179","24959","imgNWTK/FindOutNow.jpg","imgNWTK/KeepItSecret.jpg","imgNWTK/KeepItSecret.jpg","imgNWTK/FindOutNow.jpg","info","optim","3.44","","31","2","2","130","null","imgNWTK/FindOutNow.jpg","imgNWTK/KeepItSecret.jpg","imgNWTK/FindOutNow.jpg","NaN","NaN","","",""
"743","","","bandit-task-exp6","53","247615","0.0-8.0-0.1","female","18","Australia","34179","24959","imgNWTK/FindOutNow.jpg","imgNWTK/KeepItSecret.jpg","imgNWTK/KeepItSecret.jpg","imgNWTK/FindOutNow.jpg","info","optim","3.44","","32","2","1","0","null","imgNWTK/KeepItSecret.jpg","imgNWTK/FindOutNow.jpg","imgNWTK/FindOutNow.jpg","NaN","NaN","","",""
"580","","","bandit-task-exp6","54","250582","0.0-8.0-0.2","female","18","Australia","34179","24959","imgNWTK/FindOutNow.jpg","imgNWTK/KeepItSecret.jpg","imgNWTK/KeepItSecret.jpg","imgNWTK/FindOutNow.jpg","info","optim","3.44","","33","2","2","119","null","imgNWTK/FindOutNow.jpg","imgNWTK/KeepItSecret.jpg","imgNWTK/FindOutNow.jpg","NaN","NaN","","",""
"562","","","bandit-task-exp6","55","253652","0.0-8.0-0.3","female","18","Australia","34179","24959","imgNWTK/FindOutNow.jpg","imgNWTK/KeepItSecret.jpg","imgNWTK/KeepItSecret.jpg","imgNWTK/FindOutNow.jpg","info","optim","3.44","","34","1","1","70","null","imgNWTK/KeepItSecret.jpg","imgNWTK/FindOutNow.jpg","imgNWTK/KeepItSecret.jpg","NaN","NaN","","",""
"626","","","bandit-task-exp6","56","256718","0.0-8.0-0.4","female","18","Australia","34179","24959","imgNWTK/FindOutNow.jpg","imgNWTK/KeepItSecret.jpg","imgNWTK/KeepItSecret.jpg","imgNWTK/FindOutNow.jpg","info","optim","3.44","","35","1","2","0","null","imgNWTK/KeepItSecret.jpg","imgNWTK/FindOutNow.jpg","imgNWTK/KeepItSecret.jpg","NaN","NaN","","",""
"944","","","bandit-task-exp6","57","260049","0.0-8.0-0.5","female","18","Australia","34179","24959","imgNWTK/FindOutNow.jpg","imgNWTK/KeepItSecret.jpg","imgNWTK/KeepItSecret.jpg","imgNWTK/FindOutNow.jpg","info","optim","3.44","","36","2","1","0","null","imgNWTK/KeepItSecret.jpg","imgNWTK/FindOutNow.jpg","imgNWTK/FindOutNow.jpg","NaN","NaN","","",""
"1394","","","bandit-task-exp6","58","263832","0.0-8.0-0.6","female","18","Australia","34179","24959","imgNWTK/FindOutNow.jpg","imgNWTK/KeepItSecret.jpg","imgNWTK/KeepItSecret.jpg","imgNWTK/FindOutNow.jpg","info","optim","3.44","","37","2","2","117","null","imgNWTK/FindOutNow.jpg","imgNWTK/KeepItSecret.jpg","imgNWTK/FindOutNow.jpg","NaN","NaN","","",""
"597","","","bandit-task-exp6","59","266832","0.0-8.0-0.7","female","18","Australia","34179","24959","imgNWTK/FindOutNow.jpg","imgNWTK/KeepItSecret.jpg","imgNWTK/KeepItSecret.jpg","imgNWTK/FindOutNow.jpg","info","optim","3.44","","38","1","2","0","null","imgNWTK/KeepItSecret.jpg","imgNWTK/FindOutNow.jpg","imgNWTK/KeepItSecret.jpg","NaN","NaN","","",""
"531","","","bandit-task-exp6","60","270066","0.0-8.0-0.8","female","18","Australia","34179","24959","imgNWTK/FindOutNow.jpg","imgNWTK/KeepItSecret.jpg","imgNWTK/KeepItSecret.jpg","imgNWTK/FindOutNow.jpg","info","optim","3.44","","39","1","1","80","null","imgNWTK/FindOutNow.jpg","imgNWTK/KeepItSecret.jpg","imgNWTK/KeepItSecret.jpg","NaN","NaN","","",""
"847","","","bandit-task-exp6","61","273552","0.0-8.0-0.9","female","18","Australia","34179","24959","imgNWTK/FindOutNow.jpg","imgNWTK/KeepItSecret.jpg","imgNWTK/KeepItSecret.jpg","imgNWTK/FindOutNow.jpg","info","optim","3.44","","40","2","2","121","null","imgNWTK/FindOutNow.jpg","imgNWTK/KeepItSecret.jpg","imgNWTK/FindOutNow.jpg","NaN","NaN","","",""
"609","","","bandit-task-exp6","62","276516","0.0-8.0-0.10","female","18","Australia","34179","24959","imgNWTK/FindOutNow.jpg","imgNWTK/KeepItSecret.jpg","imgNWTK/KeepItSecret.jpg","imgNWTK/FindOutNow.jpg","info","optim","3.44","","41","1","2","0","null","imgNWTK/KeepItSecret.jpg","imgNWTK/FindOutNow.jpg","imgNWTK/KeepItSecret.jpg","NaN","NaN","","",""
"911","","","bandit-task-exp6","63","279764","0.0-8.0-0.11","female","18","Australia","34179","24959","imgNWTK/FindOutNow.jpg","imgNWTK/KeepItSecret.jpg","imgNWTK/KeepItSecret.jpg","imgNWTK/FindOutNow.jpg","info","optim","3.44","","42","2","2","130","null","imgNWTK/FindOutNow.jpg","imgNWTK/KeepItSecret.jpg","imgNWTK/FindOutNow.jpg","NaN","NaN","","",""
"565","","","bandit-task-exp6","64","282799","0.0-8.0-0.12","female","18","Australia","34179","24959","imgNWTK/FindOutNow.jpg","imgNWTK/KeepItSecret.jpg","imgNWTK/KeepItSecret.jpg","imgNWTK/FindOutNow.jpg","info","optim","3.44","","43","2","1","0","null","imgNWTK/FindOutNow.jpg","imgNWTK/KeepItSecret.jpg","imgNWTK/FindOutNow.jpg","NaN","NaN","","",""
"545","","","bandit-task-exp6","65","285699","0.0-8.0-0.13","female","18","Australia","34179","24959","imgNWTK/FindOutNow.jpg","imgNWTK/KeepItSecret.jpg","imgNWTK/KeepItSecret.jpg","imgNWTK/FindOutNow.jpg","info","optim","3.44","","44","2","1","0","null","imgNWTK/FindOutNow.jpg","imgNWTK/KeepItSecret.jpg","imgNWTK/FindOutNow.jpg","NaN","NaN","","",""
"578","","","bandit-task-exp6","66","288664","0.0-8.0-0.14","female","18","Australia","34179","24959","imgNWTK/FindOutNow.jpg","imgNWTK/KeepItSecret.jpg","imgNWTK/KeepItSecret.jpg","imgNWTK/FindOutNow.jpg","info","optim","3.44","","45","2","2","120","null","imgNWTK/FindOutNow.jpg","imgNWTK/KeepItSecret.jpg","imgNWTK/FindOutNow.jpg","NaN","NaN","","",""
"null","<p><b> Congratulations, you have finished this block. </b> </p><p>Please take a short break before moving onto the next block.</p><p>The next block will start after a 15 second break.</p><b>Remember, the point rewards are the same between blocks","","html-keyboard-response","67","303667","0.0-9.0","female","18","Australia","34179","24959","imgNWTK/FindOutNow.jpg","imgNWTK/KeepItSecret.jpg","imgNWTK/KeepItSecret.jpg","imgNWTK/FindOutNow.jpg","info","optim","3.44","","","","","","","","","","","","null","",""
"13227","","","bandit-task-exp6","68","319701","0.0-10.0-0.0","female","18","Australia","34179","24959","imgNWTK/FindOutNow.jpg","imgNWTK/KeepItSecret.jpg","imgNWTK/KeepItSecret.jpg","imgNWTK/FindOutNow.jpg","info","optim","3.44","","46","2","1","0","null","imgNWTK/FindOutNow.jpg","imgNWTK/KeepItSecret.jpg","imgNWTK/FindOutNow.jpg","118","88","","",""
"7894","","","bandit-task-exp6","69","330702","0.0-10.0-0.1","female","18","Australia","34179","24959","imgNWTK/FindOutNow.jpg","imgNWTK/KeepItSecret.jpg","imgNWTK/KeepItSecret.jpg","imgNWTK/FindOutNow.jpg","info","optim","3.44","","47","2","1","0","null","imgNWTK/FindOutNow.jpg","imgNWTK/KeepItSecret.jpg","imgNWTK/FindOutNow.jpg","118","88","","",""
"10158","","","bandit-task-exp6","70","343384","0.0-10.0-0.2","female","18","Australia","34179","24959","imgNWTK/FindOutNow.jpg","imgNWTK/KeepItSecret.jpg","imgNWTK/KeepItSecret.jpg","imgNWTK/FindOutNow.jpg","info","optim","3.44","","48","2","1","0","null","imgNWTK/KeepItSecret.jpg","imgNWTK/FindOutNow.jpg","imgNWTK/FindOutNow.jpg","88","118","","",""
"5441","","","bandit-task-exp6","71","351669","0.0-10.0-0.3","female","18","Australia","34179","24959","imgNWTK/FindOutNow.jpg","imgNWTK/KeepItSecret.jpg","imgNWTK/KeepItSecret.jpg","imgNWTK/FindOutNow.jpg","info","optim","3.44","","49","2","2","111","null","imgNWTK/FindOutNow.jpg","imgNWTK/KeepItSecret.jpg","imgNWTK/FindOutNow.jpg","118","88","","",""
"4690","","","bandit-task-exp6","72","358985","0.0-10.0-0.4","female","18","Australia","34179","24959","imgNWTK/FindOutNow.jpg","imgNWTK/KeepItSecret.jpg","imgNWTK/KeepItSecret.jpg","imgNWTK/FindOutNow.jpg","info","optim","3.44","","50","1","2","0","null","imgNWTK/KeepItSecret.jpg","imgNWTK/FindOutNow.jpg","imgNWTK/KeepItSecret.jpg","78","127","","",""
"5824","","","bandit-task-exp6","73","367501","0.0-10.0-0.5","female","18","Australia","34179","24959","imgNWTK/FindOutNow.jpg","imgNWTK/KeepItSecret.jpg","imgNWTK/KeepItSecret.jpg","imgNWTK/FindOutNow.jpg","info","optim","3.44","","51","2","1","0","null","imgNWTK/FindOutNow.jpg","imgNWTK/KeepItSecret.jpg","imgNWTK/FindOutNow.jpg","127","78","","",""
"3742","","","bandit-task-exp6","74","374085","0.0-10.0-0.6","female","18","Australia","34179","24959","imgNWTK/FindOutNow.jpg","imgNWTK/KeepItSecret.jpg","imgNWTK/KeepItSecret.jpg","imgNWTK/FindOutNow.jpg","info","optim","3.44","","52","1","2","0","null","imgNWTK/FindOutNow.jpg","imgNWTK/KeepItSecret.jpg","imgNWTK/KeepItSecret.jpg","127","78","","",""
"3458","","","bandit-task-exp6","75","380985","0.0-10.0-0.7","female","18","Australia","34179","24959","imgNWTK/FindOutNow.jpg","imgNWTK/KeepItSecret.jpg","imgNWTK/KeepItSecret.jpg","imgNWTK/FindOutNow.jpg","info","optim","3.44","","53","2","1","0","null","imgNWTK/KeepItSecret.jpg","imgNWTK/FindOutNow.jpg","imgNWTK/FindOutNow.jpg","78","127","","",""
"5342","","","bandit-task-exp6","76","389001","0.0-10.0-0.8","female","18","Australia","34179","24959","imgNWTK/FindOutNow.jpg","imgNWTK/KeepItSecret.jpg","imgNWTK/KeepItSecret.jpg","imgNWTK/FindOutNow.jpg","info","optim","3.44","","54","1","2","0","null","imgNWTK/KeepItSecret.jpg","imgNWTK/FindOutNow.jpg","imgNWTK/KeepItSecret.jpg","78","111","","",""
"4074","","","bandit-task-exp6","77","396219","0.0-10.0-0.9","female","18","Australia","34179","24959","imgNWTK/FindOutNow.jpg","imgNWTK/KeepItSecret.jpg","imgNWTK/KeepItSecret.jpg","imgNWTK/FindOutNow.jpg","info","optim","3.44","","55","1","1","74","null","imgNWTK/FindOutNow.jpg","imgNWTK/KeepItSecret.jpg","imgNWTK/KeepItSecret.jpg","78","111","","",""
"4323","","","bandit-task-exp6","78","403335","0.0-10.0-0.10","female","18","Australia","34179","24959","imgNWTK/FindOutNow.jpg","imgNWTK/KeepItSecret.jpg","imgNWTK/KeepItSecret.jpg","imgNWTK/FindOutNow.jpg","info","optim","3.44","","56","2","2","124","null","imgNWTK/FindOutNow.jpg","imgNWTK/KeepItSecret.jpg","imgNWTK/FindOutNow.jpg","127","78","","",""
"8942","","","bandit-task-exp6","79","415182","0.0-10.0-0.11","female","18","Australia","34179","24959","imgNWTK/FindOutNow.jpg","imgNWTK/KeepItSecret.jpg","imgNWTK/KeepItSecret.jpg","imgNWTK/FindOutNow.jpg","info","optim","3.44","","57","2","2","117","null","imgNWTK/KeepItSecret.jpg","imgNWTK/FindOutNow.jpg","imgNWTK/FindOutNow.jpg","74","111","","",""
"4978","","","bandit-task-exp6","80","422785","0.0-10.0-0.12","female","18","Australia","34179","24959","imgNWTK/FindOutNow.jpg","imgNWTK/KeepItSecret.jpg","imgNWTK/KeepItSecret.jpg","imgNWTK/FindOutNow.jpg","info","optim","3.44","","58","2","1","0","null","imgNWTK/KeepItSecret.jpg","imgNWTK/FindOutNow.jpg","imgNWTK/FindOutNow.jpg","74","127","","",""
"4060","","","bandit-task-exp6","81","429602","0.0-10.0-0.13","female","18","Australia","34179","24959","imgNWTK/FindOutNow.jpg","imgNWTK/KeepItSecret.jpg","imgNWTK/KeepItSecret.jpg","imgNWTK/FindOutNow.jpg","info","optim","3.44","","59","1","2","0","null","imgNWTK/KeepItSecret.jpg","imgNWTK/FindOutNow.jpg","imgNWTK/KeepItSecret.jpg","127","78","","",""
"4858","","","bandit-task-exp6","82","437268","0.0-10.0-0.14","female","18","Australia","34179","24959","imgNWTK/FindOutNow.jpg","imgNWTK/KeepItSecret.jpg","imgNWTK/KeepItSecret.jpg","imgNWTK/FindOutNow.jpg","info","optim","3.44","","60","2","2","114","null","imgNWTK/FindOutNow.jpg","imgNWTK/KeepItSecret.jpg","imgNWTK/FindOutNow.jpg","127","78","","",""
"4078","<p> Congratulations, you have finished the main part of the experiment. </p><p>Before you finish, we have a few short questions about the options and outcomes you saw in the task.</p>","0","html-button-response","83","441349","0.0-11.0","female","18","Australia","34179","24959","imgNWTK/FindOutNow.jpg","imgNWTK/KeepItSecret.jpg","imgNWTK/KeepItSecret.jpg","imgNWTK/FindOutNow.jpg","info","optim","3.44","","","","","","","","","","","","","",""
"5380","<p><b>Now, imagine that you clicked on the below button for another 10 trials (this includes <i> BOTH WIN and NO-WIN trials</i>).</p> <img src= 'imgNWTK/KeepItSecret.jpg'></img></br></br> <p><b>Please type the reward (number of points) you would expect to receive on every trial.</br> Click start to begin.</p>","0","html-button-response","84","446731","0.0-12.0","female","18","Australia","34179","24959","imgNWTK/FindOutNow.jpg","imgNWTK/KeepItSecret.jpg","imgNWTK/KeepItSecret.jpg","imgNWTK/FindOutNow.jpg","info","optim","3.44","","","","","","","","","","","","","",""
"12979","","","survey-number","85","459716","0.0-13.0-0.0","female","18","Australia","34179","24959","imgNWTK/FindOutNow.jpg","imgNWTK/KeepItSecret.jpg","imgNWTK/KeepItSecret.jpg","imgNWTK/FindOutNow.jpg","info","optim","3.44","{""undefined"":""74""}","","","","","","","","","","","","imgNWTK/KeepItSecret.jpg",""
"3227.8000000715256","","","survey-number","86","462949","0.0-13.0-0.1","female","18","Australia","34179","24959","imgNWTK/FindOutNow.jpg","imgNWTK/KeepItSecret.jpg","imgNWTK/KeepItSecret.jpg","imgNWTK/FindOutNow.jpg","info","optim","3.44","{""undefined"":""78""}","","","","","","","","","","","","imgNWTK/KeepItSecret.jpg",""
"1104.5","","","survey-number","87","464058","0.0-13.0-0.2","female","18","Australia","34179","24959","imgNWTK/FindOutNow.jpg","imgNWTK/KeepItSecret.jpg","imgNWTK/KeepItSecret.jpg","imgNWTK/FindOutNow.jpg","info","optim","3.44","{""undefined"":""88""}","","","","","","","","","","","","imgNWTK/KeepItSecret.jpg",""
"2009.5","","","survey-number","88","466073","0.0-13.0-0.3","female","18","Australia","34179","24959","imgNWTK/FindOutNow.jpg","imgNWTK/KeepItSecret.jpg","imgNWTK/KeepItSecret.jpg","imgNWTK/FindOutNow.jpg","info","optim","3.44","{""undefined"":""70""}","","","","","","","","","","","","imgNWTK/KeepItSecret.jpg",""
"2857.899999976158","","","survey-number","89","468936","0.0-13.0-0.4","female","18","Australia","34179","24959","imgNWTK/FindOutNow.jpg","imgNWTK/KeepItSecret.jpg","imgNWTK/KeepItSecret.jpg","imgNWTK/FindOutNow.jpg","info","optim","3.44","{""undefined"":""88""}","","","","","","","","","","","","imgNWTK/KeepItSecret.jpg",""
"1829.7999999523163","","","survey-number","90","470770","0.0-13.0-0.5","female","18","Australia","34179","24959","imgNWTK/FindOutNow.jpg","imgNWTK/KeepItSecret.jpg","imgNWTK/KeepItSecret.jpg","imgNWTK/FindOutNow.jpg","info","optim","3.44","{""undefined"":""80""}","","","","","","","","","","","","imgNWTK/KeepItSecret.jpg",""
"1833.5","","","survey-number","91","472608","0.0-13.0-0.6","female","18","Australia","34179","24959","imgNWTK/FindOutNow.jpg","imgNWTK/KeepItSecret.jpg","imgNWTK/KeepItSecret.jpg","imgNWTK/FindOutNow.jpg","info","optim","3.44","{""undefined"":""72""}","","","","","","","","","","","","imgNWTK/KeepItSecret.jpg",""
"1684.0999999046326","","","survey-number","92","474295","0.0-13.0-0.7","female","18","Australia","34179","24959","imgNWTK/FindOutNow.jpg","imgNWTK/KeepItSecret.jpg","imgNWTK/KeepItSecret.jpg","imgNWTK/FindOutNow.jpg","info","optim","3.44","{""undefined"":""84""}","","","","","","","","","","","","imgNWTK/KeepItSecret.jpg",""
"2580.4000000953674","","","survey-number","93","476881","0.0-13.0-0.8","female","18","Australia","34179","24959","imgNWTK/FindOutNow.jpg","imgNWTK/KeepItSecret.jpg","imgNWTK/KeepItSecret.jpg","imgNWTK/FindOutNow.jpg","info","optim","3.44","{""undefined"":""79""}","","","","","","","","","","","","imgNWTK/KeepItSecret.jpg",""
"4203.299999952316","","","survey-number","94","481089","0.0-13.0-0.9","female","18","Australia","34179","24959","imgNWTK/FindOutNow.jpg","imgNWTK/KeepItSecret.jpg","imgNWTK/KeepItSecret.jpg","imgNWTK/FindOutNow.jpg","info","optim","3.44","{""undefined"":""71""}","","","","","","","","","","","","imgNWTK/KeepItSecret.jpg",""
"1373","<p><b>Imagine that you clicked on the below button for another 10 trials (this includes <i> both WIN and NO-WIN trials</i>).</p> <img src= 'imgNWTK/FindOutNow.jpg'></img></br></br> <p><b>Please type the reward (number of points) you would expect to receive on every trial.</br> Click start to begin.</p>","0","html-button-response","95","482464","0.0-14.0","female","18","Australia","34179","24959","imgNWTK/FindOutNow.jpg","imgNWTK/KeepItSecret.jpg","imgNWTK/KeepItSecret.jpg","imgNWTK/FindOutNow.jpg","info","optim","3.44","","","","","","","","","","","","","",""
"1750.3999999761581","","","survey-number","96","484220","0.0-15.0-0.0","female","18","Australia","34179","24959","imgNWTK/FindOutNow.jpg","imgNWTK/KeepItSecret.jpg","imgNWTK/KeepItSecret.jpg","imgNWTK/FindOutNow.jpg","info","optim","3.44","{""undefined"":""127""}","","","","","","","","","","","","imgNWTK/FindOutNow.jpg",""
"1425.3999999761581","","","survey-number","97","485649","0.0-15.0-0.1","female","18","Australia","34179","24959","imgNWTK/FindOutNow.jpg","imgNWTK/KeepItSecret.jpg","imgNWTK/KeepItSecret.jpg","imgNWTK/FindOutNow.jpg","info","optim","3.44","{""undefined"":""124""}","","","","","","","","","","","","imgNWTK/FindOutNow.jpg",""
"807.9000000953674","","","survey-number","98","486462","0.0-15.0-0.2","female","18","Australia","34179","24959","imgNWTK/FindOutNow.jpg","imgNWTK/KeepItSecret.jpg","imgNWTK/KeepItSecret.jpg","imgNWTK/FindOutNow.jpg","info","optim","3.44","{""undefined"":""111""}","","","","","","","","","","","","imgNWTK/FindOutNow.jpg",""
"1049.7999999523163","","","survey-number","99","487516","0.0-15.0-0.3","female","18","Australia","34179","24959","imgNWTK/FindOutNow.jpg","imgNWTK/KeepItSecret.jpg","imgNWTK/KeepItSecret.jpg","imgNWTK/FindOutNow.jpg","info","optim","3.44","{""undefined"":""118""}","","","","","","","","","","","","imgNWTK/FindOutNow.jpg",""
"1035.6999999284744","","","survey-number","100","488556","0.0-15.0-0.4","female","18","Australia","34179","24959","imgNWTK/FindOutNow.jpg","imgNWTK/KeepItSecret.jpg","imgNWTK/KeepItSecret.jpg","imgNWTK/FindOutNow.jpg","info","optim","3.44","{""undefined"":""117""}","","","","","","","","","","","","imgNWTK/FindOutNow.jpg",""
"1182.8999999761581","","","survey-number","101","489743","0.0-15.0-0.5","female","18","Australia","34179","24959","imgNWTK/FindOutNow.jpg","imgNWTK/KeepItSecret.jpg","imgNWTK/KeepItSecret.jpg","imgNWTK/FindOutNow.jpg","info","optim","3.44","{""undefined"":""115""}","","","","","","","","","","","","imgNWTK/FindOutNow.jpg",""
"1093.5999999046326","","","survey-number","102","490841","0.0-15.0-0.6","female","18","Australia","34179","24959","imgNWTK/FindOutNow.jpg","imgNWTK/KeepItSecret.jpg","imgNWTK/KeepItSecret.jpg","imgNWTK/FindOutNow.jpg","info","optim","3.44","{""undefined"":""120""}","","","","","","","","","","","","imgNWTK/FindOutNow.jpg",""
"4558.099999904633","","","survey-number","103","495403","0.0-15.0-0.7","female","18","Australia","34179","24959","imgNWTK/FindOutNow.jpg","imgNWTK/KeepItSecret.jpg","imgNWTK/KeepItSecret.jpg","imgNWTK/FindOutNow.jpg","info","optim","3.44","{""undefined"":""123""}","","","","","","","","","","","","imgNWTK/FindOutNow.jpg",""
"1682.1000000238419","","","survey-number","104","497090","0.0-15.0-0.8","female","18","Australia","34179","24959","imgNWTK/FindOutNow.jpg","imgNWTK/KeepItSecret.jpg","imgNWTK/KeepItSecret.jpg","imgNWTK/FindOutNow.jpg","info","optim","3.44","{""undefined"":""125""}","","","","","","","","","","","","imgNWTK/FindOutNow.jpg",""
"1209.5","","","survey-number","105","498304","0.0-15.0-0.9","female","18","Australia","34179","24959","imgNWTK/FindOutNow.jpg","imgNWTK/KeepItSecret.jpg","imgNWTK/KeepItSecret.jpg","imgNWTK/FindOutNow.jpg","info","optim","3.44","{""undefined"":""119""}","","","","","","","","","","","","imgNWTK/FindOutNow.jpg",""
"12930.799999952316","","","survey-number","106","511242","0.0-16.0","female","18","Australia","34179","24959","imgNWTK/FindOutNow.jpg","imgNWTK/KeepItSecret.jpg","imgNWTK/KeepItSecret.jpg","imgNWTK/FindOutNow.jpg","info","optim","3.44","{""undefined"":""74""}","","","","","","","","","","","","","imgNWTK/KeepItSecret.jpg"
"4059","","","survey-number","107","515306","0.0-17.0","female","18","Australia","34179","24959","imgNWTK/FindOutNow.jpg","imgNWTK/KeepItSecret.jpg","imgNWTK/KeepItSecret.jpg","imgNWTK/FindOutNow.jpg","info","optim","3.44","{""undefined"":""114""}","","","","","","","","","","","","","imgNWTK/FindOutNow.jpg"
"98771","<p style=""text-align:left;"">Great! We are almost at the end of the study... (Please do not close the browser window yet.)</p><p> Your final points balance is 3438, which equals to a bonus payment of $3.44. Please collect your payment from Mathews Building Room 721 (Wed-Fri 9am-5pm); please email jaimie.lee@unsw.edu.au at least 24 hours prior to collection so that this is ready for you.</p><p style=""text-align:left;"">To view the debriefing form, please click <a href=""./imgNWTK/debrief_3205.pdf"" target=""_blank"">here</a> to download a copy.</p><p style=""text-align:left;"">Then, <b>please click the below button</b> to confirm that you have received your debrief and to complete the study. Upon clicking ""Finish!"", your SONA credit will be automatically assigned.</p>","0","html-button-response","108","614079","0.0-18.0","female","18","Australia","34179","24959","imgNWTK/FindOutNow.jpg","imgNWTK/KeepItSecret.jpg","imgNWTK/KeepItSecret.jpg","imgNWTK/FindOutNow.jpg","info","optim","3.44","","","","","","","","","","","","","",""
