"rt","stimulus","button_pressed","trial_type","trial_index","time_elapsed","internal_node_id","gender","age","language","PID","sona_id","subStim","optStim","stim1","stim2","infoCond","optimCond","bonus","responses","banditTrial","choice","cue","feedback","estimateData","leftOption","rightOption","choiceName","leftInput","rightInput","key_press","postQ","singleEst"
"1448","<p>Thank you for signing up to participate in SONA Study 465! <br> During this study, please focus on the experiment and refrain from activities such as:</p>- <b>Switching to other tabs on your browser (this will be monitored via the experiment)</br> - Using your mobile phone/cell phone</br> - Communicating with others</br></br></b><p>This way, you are helping to provide data that is useful for psychological research. We thank you for your cooperation!</p>","0","html-button-response","0","1452","0.0-0.0","female","18","australia","34906","24708","imgNWTK/FindOutNow.jpg","imgNWTK/KeepItSecret.jpg","imgNWTK/KeepItSecret.jpg","imgNWTK/FindOutNow.jpg","info","optim","2.67","","","","","","","","","","","","","",""
"3529","<p>Welcome to the experiment!</p><p>You will now read some instructions about the task. Press the 'Next' button to continue. </p>","0","html-button-response","1","4984","0.0-1.0","female","18","australia","34906","24708","imgNWTK/FindOutNow.jpg","imgNWTK/KeepItSecret.jpg","imgNWTK/KeepItSecret.jpg","imgNWTK/FindOutNow.jpg","info","optim","2.67","","","","","","","","","","","","","",""
"23928","<p> On each trial throughout the experiment you will choose between the options </br><b> Find Out Now </b> and <b> Keep It Secret </b>, as shown below.</p><div><div style= 'float: left; width: 300px; margin: 10px 10px;'><img src= 'imgNWTK/KeepItSecret.jpg'></img></div><div style= 'float: right; width: 300px; margin: 10px 10px;'><img src= 'imgNWTK/FindOutNow.jpg'></img></div></div><br/><br/><br/><br/><br/><br/><br/><br/><br/><br/><br/><p>Each option results in winning points or receiving 0 points.</br>There is a 50% chance of either winning or receiving 0 points.</p><p>You won't receive the outcome until after a <b> 20 second delay</b>. However, selecting the Find Out Now option will allow you to find out about the outcome early, whereas the Keep It Secret option will not. </p>","0","html-button-response","2","28914","0.0-2.0-0.0","female","18","australia","34906","24708","imgNWTK/FindOutNow.jpg","imgNWTK/KeepItSecret.jpg","imgNWTK/KeepItSecret.jpg","imgNWTK/FindOutNow.jpg","info","optim","2.67","","","","","","","","","","","","","",""
"26002","<img src= 'cues/Experiment6.png'></img><p>As seen above, when choosing the <b>'Find Out Now'</b> option, you will receive either a happy face or sad face.</br>The happy face means you will win points after the delay, whereas the sad face means you will receive 0 points.</br></p><p> When choosing the <b> 'Keep it Secret' </b> option you will receive a confused face.</br> This face appears regardless of whether you are going to win points or not. </p>In short, choosing 'Find Out Now' allows you to find out the outcome before you experience it (after the delay).</br></br>","0","html-button-response","3","54919","0.0-2.0-1.0","female","18","australia","34906","24708","imgNWTK/FindOutNow.jpg","imgNWTK/KeepItSecret.jpg","imgNWTK/KeepItSecret.jpg","imgNWTK/FindOutNow.jpg","info","optim","2.67","","","","","","","","","","","","","",""
"1203","<img src= 'cues/winTrials_info.png' width = '1200'></img><p>To reiterate, 50% of the outcomes of each option will be WIN TRIALS, and the other 50% will be NO-WIN TRIALS.","0","html-button-response","4","56126","0.0-2.0-2.0","female","18","australia","34906","24708","imgNWTK/FindOutNow.jpg","imgNWTK/KeepItSecret.jpg","imgNWTK/KeepItSecret.jpg","imgNWTK/FindOutNow.jpg","info","optim","2.67","","","","","","","","","","","","","",""
"1103","<p> There will be <b>four blocks</b> in the experiment.</br>You will be given a short 15 second break between each block.</p><p><b>The points and the options will remain the same between the blocks.</b></p>The blocks are there just to give you a small break.</br></br><p>The points you earn in the task are also equal to <b> actual money</b>.</br> <b>1000 points is equal to $1.</b></p><p>This is the rate you will be paid at the experiment's end.","0","html-button-response","5","57232","0.0-2.0-3.0","female","18","australia","34906","24708","imgNWTK/FindOutNow.jpg","imgNWTK/KeepItSecret.jpg","imgNWTK/KeepItSecret.jpg","imgNWTK/FindOutNow.jpg","info","optim","2.67","","","","","","","","","","","","","",""
"92210","","","survey-multi-choice","6","149454","0.0-2.0-4.0","female","18","australia","34906","24708","imgNWTK/FindOutNow.jpg","imgNWTK/KeepItSecret.jpg","imgNWTK/KeepItSecret.jpg","imgNWTK/FindOutNow.jpg","info","optim","2.67","{""Q0"":""20 Seconds"",""Q1"":""True"",""Q2"":""Equally"",""Q3"":""True""}","","","","","","","","","","","","",""
"1045","<p> Well done, all your answers were correct! <br> The experiment is about to start now. <br/> Click start to continue, or email your researcher <b>(amy.x.li@unsw.edu.au)</b> if you have any questions before starting.","0","html-button-response","7","150503","0.0-3.0","female","18","australia","34906","24708","imgNWTK/FindOutNow.jpg","imgNWTK/KeepItSecret.jpg","imgNWTK/KeepItSecret.jpg","imgNWTK/FindOutNow.jpg","info","optim","2.67","","","","","","","","","","","","","",""
"44149","","","bandit-task-exp6","8","198197","0.0-4.0-0.0","female","18","australia","34906","24708","imgNWTK/FindOutNow.jpg","imgNWTK/KeepItSecret.jpg","imgNWTK/KeepItSecret.jpg","imgNWTK/FindOutNow.jpg","info","optim","2.67","","1","2","1","0","null","imgNWTK/KeepItSecret.jpg","imgNWTK/FindOutNow.jpg","imgNWTK/FindOutNow.jpg","NaN","NaN","","",""
"602","","","bandit-task-exp6","9","201426","0.0-4.0-0.1","female","18","australia","34906","24708","imgNWTK/FindOutNow.jpg","imgNWTK/KeepItSecret.jpg","imgNWTK/KeepItSecret.jpg","imgNWTK/FindOutNow.jpg","info","optim","2.67","","2","1","1","87","null","imgNWTK/FindOutNow.jpg","imgNWTK/KeepItSecret.jpg","imgNWTK/KeepItSecret.jpg","NaN","NaN","","",""
"477","","","bandit-task-exp6","10","204872","0.0-4.0-0.2","female","18","australia","34906","24708","imgNWTK/FindOutNow.jpg","imgNWTK/KeepItSecret.jpg","imgNWTK/KeepItSecret.jpg","imgNWTK/FindOutNow.jpg","info","optim","2.67","","3","1","1","73","null","imgNWTK/FindOutNow.jpg","imgNWTK/KeepItSecret.jpg","imgNWTK/KeepItSecret.jpg","NaN","NaN","","",""
"858","","","bandit-task-exp6","11","208259","0.0-4.0-0.3","female","18","australia","34906","24708","imgNWTK/FindOutNow.jpg","imgNWTK/KeepItSecret.jpg","imgNWTK/KeepItSecret.jpg","imgNWTK/FindOutNow.jpg","info","optim","2.67","","4","2","1","0","null","imgNWTK/KeepItSecret.jpg","imgNWTK/FindOutNow.jpg","imgNWTK/FindOutNow.jpg","NaN","NaN","","",""
"426","","","bandit-task-exp6","12","211488","0.0-4.0-0.4","female","18","australia","34906","24708","imgNWTK/FindOutNow.jpg","imgNWTK/KeepItSecret.jpg","imgNWTK/KeepItSecret.jpg","imgNWTK/FindOutNow.jpg","info","optim","2.67","","5","2","1","0","null","imgNWTK/KeepItSecret.jpg","imgNWTK/FindOutNow.jpg","imgNWTK/FindOutNow.jpg","NaN","NaN","","",""
"507","","","bandit-task-exp6","13","220339","0.0-4.0-0.5","female","18","australia","34906","24708","imgNWTK/FindOutNow.jpg","imgNWTK/KeepItSecret.jpg","imgNWTK/KeepItSecret.jpg","imgNWTK/FindOutNow.jpg","info","optim","2.67","","6","2","1","0","null","imgNWTK/KeepItSecret.jpg","imgNWTK/FindOutNow.jpg","imgNWTK/FindOutNow.jpg","NaN","NaN","","",""
"771","","","bandit-task-exp6","14","227089","0.0-4.0-0.6","female","18","australia","34906","24708","imgNWTK/FindOutNow.jpg","imgNWTK/KeepItSecret.jpg","imgNWTK/KeepItSecret.jpg","imgNWTK/FindOutNow.jpg","info","optim","2.67","","7","1","1","75","null","imgNWTK/FindOutNow.jpg","imgNWTK/KeepItSecret.jpg","imgNWTK/KeepItSecret.jpg","NaN","NaN","","",""
"559","","","bandit-task-exp6","15","237231","0.0-4.0-0.7","female","18","australia","34906","24708","imgNWTK/FindOutNow.jpg","imgNWTK/KeepItSecret.jpg","imgNWTK/KeepItSecret.jpg","imgNWTK/FindOutNow.jpg","info","optim","2.67","","8","1","2","0","null","imgNWTK/FindOutNow.jpg","imgNWTK/KeepItSecret.jpg","imgNWTK/KeepItSecret.jpg","NaN","NaN","","",""
"692","","","bandit-task-exp6","16","240542","0.0-4.0-0.8","female","18","australia","34906","24708","imgNWTK/FindOutNow.jpg","imgNWTK/KeepItSecret.jpg","imgNWTK/KeepItSecret.jpg","imgNWTK/FindOutNow.jpg","info","optim","2.67","","9","2","2","130","null","imgNWTK/FindOutNow.jpg","imgNWTK/KeepItSecret.jpg","imgNWTK/FindOutNow.jpg","NaN","NaN","","",""
"863","","","bandit-task-exp6","17","244160","0.0-4.0-0.9","female","18","australia","34906","24708","imgNWTK/FindOutNow.jpg","imgNWTK/KeepItSecret.jpg","imgNWTK/KeepItSecret.jpg","imgNWTK/FindOutNow.jpg","info","optim","2.67","","10","2","1","0","null","imgNWTK/FindOutNow.jpg","imgNWTK/KeepItSecret.jpg","imgNWTK/FindOutNow.jpg","NaN","NaN","","",""
"651","","","bandit-task-exp6","18","247360","0.0-4.0-0.10","female","18","australia","34906","24708","imgNWTK/FindOutNow.jpg","imgNWTK/KeepItSecret.jpg","imgNWTK/KeepItSecret.jpg","imgNWTK/FindOutNow.jpg","info","optim","2.67","","11","2","1","0","null","imgNWTK/FindOutNow.jpg","imgNWTK/KeepItSecret.jpg","imgNWTK/FindOutNow.jpg","NaN","NaN","","",""
"776","","","bandit-task-exp6","19","251092","0.0-4.0-0.11","female","18","australia","34906","24708","imgNWTK/FindOutNow.jpg","imgNWTK/KeepItSecret.jpg","imgNWTK/KeepItSecret.jpg","imgNWTK/FindOutNow.jpg","info","optim","2.67","","12","2","1","0","null","imgNWTK/FindOutNow.jpg","imgNWTK/KeepItSecret.jpg","imgNWTK/FindOutNow.jpg","NaN","NaN","","",""
"710","","","bandit-task-exp6","20","254416","0.0-4.0-0.12","female","18","australia","34906","24708","imgNWTK/FindOutNow.jpg","imgNWTK/KeepItSecret.jpg","imgNWTK/KeepItSecret.jpg","imgNWTK/FindOutNow.jpg","info","optim","2.67","","13","2","2","126","null","imgNWTK/FindOutNow.jpg","imgNWTK/KeepItSecret.jpg","imgNWTK/FindOutNow.jpg","NaN","NaN","","",""
"720","","","bandit-task-exp6","21","258250","0.0-4.0-0.13","female","18","australia","34906","24708","imgNWTK/FindOutNow.jpg","imgNWTK/KeepItSecret.jpg","imgNWTK/KeepItSecret.jpg","imgNWTK/FindOutNow.jpg","info","optim","2.67","","14","2","2","120","null","imgNWTK/FindOutNow.jpg","imgNWTK/KeepItSecret.jpg","imgNWTK/FindOutNow.jpg","NaN","NaN","","",""
"755","","","bandit-task-exp6","22","261554","0.0-4.0-0.14","female","18","australia","34906","24708","imgNWTK/FindOutNow.jpg","imgNWTK/KeepItSecret.jpg","imgNWTK/KeepItSecret.jpg","imgNWTK/FindOutNow.jpg","info","optim","2.67","","15","1","2","0","null","imgNWTK/KeepItSecret.jpg","imgNWTK/FindOutNow.jpg","imgNWTK/KeepItSecret.jpg","NaN","NaN","","",""
"null","<p><b> Congratulations, you have finished this block. </b> </p><p>Please take a short break before moving onto the next block.</p><p>The next block will start after a 15 second break.</p><b>Remember, the point rewards are the same between blocks","","html-keyboard-response","23","276557","0.0-5.0","female","18","australia","34906","24708","imgNWTK/FindOutNow.jpg","imgNWTK/KeepItSecret.jpg","imgNWTK/KeepItSecret.jpg","imgNWTK/FindOutNow.jpg","info","optim","2.67","","","","","","","","","","","","null","",""
"686","","","bandit-task-exp6","24","280354","0.0-6.0-0.0","female","18","australia","34906","24708","imgNWTK/FindOutNow.jpg","imgNWTK/KeepItSecret.jpg","imgNWTK/KeepItSecret.jpg","imgNWTK/FindOutNow.jpg","info","optim","2.67","","16","1","2","0","null","imgNWTK/KeepItSecret.jpg","imgNWTK/FindOutNow.jpg","imgNWTK/KeepItSecret.jpg","NaN","NaN","","",""
"552","","","bandit-task-exp6","25","292286","0.0-6.0-0.1","female","18","australia","34906","24708","imgNWTK/FindOutNow.jpg","imgNWTK/KeepItSecret.jpg","imgNWTK/KeepItSecret.jpg","imgNWTK/FindOutNow.jpg","info","optim","2.67","","17","1","2","0","null","imgNWTK/KeepItSecret.jpg","imgNWTK/FindOutNow.jpg","imgNWTK/KeepItSecret.jpg","NaN","NaN","","",""
"1034","","","bandit-task-exp6","26","296269","0.0-6.0-0.2","female","18","australia","34906","24708","imgNWTK/FindOutNow.jpg","imgNWTK/KeepItSecret.jpg","imgNWTK/KeepItSecret.jpg","imgNWTK/FindOutNow.jpg","info","optim","2.67","","18","2","1","0","null","imgNWTK/FindOutNow.jpg","imgNWTK/KeepItSecret.jpg","imgNWTK/FindOutNow.jpg","NaN","NaN","","",""
"760","","","bandit-task-exp6","27","300514","0.0-6.0-0.3","female","18","australia","34906","24708","imgNWTK/FindOutNow.jpg","imgNWTK/KeepItSecret.jpg","imgNWTK/KeepItSecret.jpg","imgNWTK/FindOutNow.jpg","info","optim","2.67","","19","2","1","0","null","imgNWTK/FindOutNow.jpg","imgNWTK/KeepItSecret.jpg","imgNWTK/FindOutNow.jpg","NaN","NaN","","",""
"627","","","bandit-task-exp6","28","303535","0.0-6.0-0.4","female","18","australia","34906","24708","imgNWTK/FindOutNow.jpg","imgNWTK/KeepItSecret.jpg","imgNWTK/KeepItSecret.jpg","imgNWTK/FindOutNow.jpg","info","optim","2.67","","20","1","2","0","null","imgNWTK/KeepItSecret.jpg","imgNWTK/FindOutNow.jpg","imgNWTK/KeepItSecret.jpg","NaN","NaN","","",""
"589","","","bandit-task-exp6","29","306714","0.0-6.0-0.5","female","18","australia","34906","24708","imgNWTK/FindOutNow.jpg","imgNWTK/KeepItSecret.jpg","imgNWTK/KeepItSecret.jpg","imgNWTK/FindOutNow.jpg","info","optim","2.67","","21","1","2","0","null","imgNWTK/KeepItSecret.jpg","imgNWTK/FindOutNow.jpg","imgNWTK/KeepItSecret.jpg","NaN","NaN","","",""
"919","","","bandit-task-exp6","30","310583","0.0-6.0-0.6","female","18","australia","34906","24708","imgNWTK/FindOutNow.jpg","imgNWTK/KeepItSecret.jpg","imgNWTK/KeepItSecret.jpg","imgNWTK/FindOutNow.jpg","info","optim","2.67","","22","1","2","0","null","imgNWTK/KeepItSecret.jpg","imgNWTK/FindOutNow.jpg","imgNWTK/KeepItSecret.jpg","NaN","NaN","","",""
"1130","","","bandit-task-exp6","31","314232","0.0-6.0-0.7","female","18","australia","34906","24708","imgNWTK/FindOutNow.jpg","imgNWTK/KeepItSecret.jpg","imgNWTK/KeepItSecret.jpg","imgNWTK/FindOutNow.jpg","info","optim","2.67","","23","1","2","0","null","imgNWTK/KeepItSecret.jpg","imgNWTK/FindOutNow.jpg","imgNWTK/KeepItSecret.jpg","NaN","NaN","","",""
"741","","","bandit-task-exp6","32","317430","0.0-6.0-0.8","female","18","australia","34906","24708","imgNWTK/FindOutNow.jpg","imgNWTK/KeepItSecret.jpg","imgNWTK/KeepItSecret.jpg","imgNWTK/FindOutNow.jpg","info","optim","2.67","","24","2","1","0","null","imgNWTK/FindOutNow.jpg","imgNWTK/KeepItSecret.jpg","imgNWTK/FindOutNow.jpg","NaN","NaN","","",""
"718","","","bandit-task-exp6","33","320672","0.0-6.0-0.9","female","18","australia","34906","24708","imgNWTK/FindOutNow.jpg","imgNWTK/KeepItSecret.jpg","imgNWTK/KeepItSecret.jpg","imgNWTK/FindOutNow.jpg","info","optim","2.67","","25","2","2","110","null","imgNWTK/FindOutNow.jpg","imgNWTK/KeepItSecret.jpg","imgNWTK/FindOutNow.jpg","NaN","NaN","","",""
"601","","","bandit-task-exp6","34","323349","0.0-6.0-0.10","female","18","australia","34906","24708","imgNWTK/FindOutNow.jpg","imgNWTK/KeepItSecret.jpg","imgNWTK/KeepItSecret.jpg","imgNWTK/FindOutNow.jpg","info","optim","2.67","","26","2","1","0","null","imgNWTK/FindOutNow.jpg","imgNWTK/KeepItSecret.jpg","imgNWTK/FindOutNow.jpg","NaN","NaN","","",""
"908","","","bandit-task-exp6","35","326988","0.0-6.0-0.11","female","18","australia","34906","24708","imgNWTK/FindOutNow.jpg","imgNWTK/KeepItSecret.jpg","imgNWTK/KeepItSecret.jpg","imgNWTK/FindOutNow.jpg","info","optim","2.67","","27","2","1","0","null","imgNWTK/FindOutNow.jpg","imgNWTK/KeepItSecret.jpg","imgNWTK/FindOutNow.jpg","NaN","NaN","","",""
"898","","","bandit-task-exp6","36","333360","0.0-6.0-0.12","female","18","australia","34906","24708","imgNWTK/FindOutNow.jpg","imgNWTK/KeepItSecret.jpg","imgNWTK/KeepItSecret.jpg","imgNWTK/FindOutNow.jpg","info","optim","2.67","","28","2","1","0","null","imgNWTK/FindOutNow.jpg","imgNWTK/KeepItSecret.jpg","imgNWTK/FindOutNow.jpg","NaN","NaN","","",""
"10304","","","bandit-task-exp6","37","349152","0.0-6.0-0.13","female","18","australia","34906","24708","imgNWTK/FindOutNow.jpg","imgNWTK/KeepItSecret.jpg","imgNWTK/KeepItSecret.jpg","imgNWTK/FindOutNow.jpg","info","optim","2.67","","29","1","2","0","null","imgNWTK/KeepItSecret.jpg","imgNWTK/FindOutNow.jpg","imgNWTK/KeepItSecret.jpg","NaN","NaN","","",""
"4022","","","bandit-task-exp6","38","355575","0.0-6.0-0.14","female","18","australia","34906","24708","imgNWTK/FindOutNow.jpg","imgNWTK/KeepItSecret.jpg","imgNWTK/KeepItSecret.jpg","imgNWTK/FindOutNow.jpg","info","optim","2.67","","30","1","2","0","null","imgNWTK/KeepItSecret.jpg","imgNWTK/FindOutNow.jpg","imgNWTK/KeepItSecret.jpg","NaN","NaN","","",""
"null","<p><b> Congratulations, you have finished this block. </b> </p><p>Please take a short break before moving onto the next block.</p><p>The next block will start after a 15 second break.</p><b>Remember, the point rewards are the same between blocks","","html-keyboard-response","39","370584","0.0-7.0","female","18","australia","34906","24708","imgNWTK/FindOutNow.jpg","imgNWTK/KeepItSecret.jpg","imgNWTK/KeepItSecret.jpg","imgNWTK/FindOutNow.jpg","info","optim","2.67","","","","","","","","","","","","null","",""
"1228","","","bandit-task-exp6","40","374410","0.0-8.0-0.0","female","18","australia","34906","24708","imgNWTK/FindOutNow.jpg","imgNWTK/KeepItSecret.jpg","imgNWTK/KeepItSecret.jpg","imgNWTK/FindOutNow.jpg","info","optim","2.67","","31","2","1","0","null","imgNWTK/FindOutNow.jpg","imgNWTK/KeepItSecret.jpg","imgNWTK/FindOutNow.jpg","NaN","NaN","","",""
"2028","","","bandit-task-exp6","41","380252","0.0-8.0-0.1","female","18","australia","34906","24708","imgNWTK/FindOutNow.jpg","imgNWTK/KeepItSecret.jpg","imgNWTK/KeepItSecret.jpg","imgNWTK/FindOutNow.jpg","info","optim","2.67","","32","1","2","0","null","imgNWTK/KeepItSecret.jpg","imgNWTK/FindOutNow.jpg","imgNWTK/KeepItSecret.jpg","NaN","NaN","","",""
"1292","","","bandit-task-exp6","42","384535","0.0-8.0-0.2","female","18","australia","34906","24708","imgNWTK/FindOutNow.jpg","imgNWTK/KeepItSecret.jpg","imgNWTK/KeepItSecret.jpg","imgNWTK/FindOutNow.jpg","info","optim","2.67","","33","1","1","89","null","imgNWTK/KeepItSecret.jpg","imgNWTK/FindOutNow.jpg","imgNWTK/KeepItSecret.jpg","NaN","NaN","","",""
"615","","","bandit-task-exp6","43","387487","0.0-8.0-0.3","female","18","australia","34906","24708","imgNWTK/FindOutNow.jpg","imgNWTK/KeepItSecret.jpg","imgNWTK/KeepItSecret.jpg","imgNWTK/FindOutNow.jpg","info","optim","2.67","","34","1","2","0","null","imgNWTK/KeepItSecret.jpg","imgNWTK/FindOutNow.jpg","imgNWTK/KeepItSecret.jpg","NaN","NaN","","",""
"529","","","bandit-task-exp6","44","390622","0.0-8.0-0.4","female","18","australia","34906","24708","imgNWTK/FindOutNow.jpg","imgNWTK/KeepItSecret.jpg","imgNWTK/KeepItSecret.jpg","imgNWTK/FindOutNow.jpg","info","optim","2.67","","35","2","2","126","null","imgNWTK/FindOutNow.jpg","imgNWTK/KeepItSecret.jpg","imgNWTK/FindOutNow.jpg","NaN","NaN","","",""
"1497","","","bandit-task-exp6","45","441248","0.0-8.0-0.5","female","18","australia","34906","24708","imgNWTK/FindOutNow.jpg","imgNWTK/KeepItSecret.jpg","imgNWTK/KeepItSecret.jpg","imgNWTK/FindOutNow.jpg","info","optim","2.67","","36","1","1","82","null","imgNWTK/KeepItSecret.jpg","imgNWTK/FindOutNow.jpg","imgNWTK/KeepItSecret.jpg","NaN","NaN","","",""
"862","","","bandit-task-exp6","46","452504","0.0-8.0-0.6","female","18","australia","34906","24708","imgNWTK/FindOutNow.jpg","imgNWTK/KeepItSecret.jpg","imgNWTK/KeepItSecret.jpg","imgNWTK/FindOutNow.jpg","info","optim","2.67","","37","1","1","72","null","imgNWTK/KeepItSecret.jpg","imgNWTK/FindOutNow.jpg","imgNWTK/KeepItSecret.jpg","NaN","NaN","","",""
"498","","","bandit-task-exp6","47","456051","0.0-8.0-0.7","female","18","australia","34906","24708","imgNWTK/FindOutNow.jpg","imgNWTK/KeepItSecret.jpg","imgNWTK/KeepItSecret.jpg","imgNWTK/FindOutNow.jpg","info","optim","2.67","","38","1","1","74","null","imgNWTK/KeepItSecret.jpg","imgNWTK/FindOutNow.jpg","imgNWTK/KeepItSecret.jpg","NaN","NaN","","",""
"552","","","bandit-task-exp6","48","458982","0.0-8.0-0.8","female","18","australia","34906","24708","imgNWTK/FindOutNow.jpg","imgNWTK/KeepItSecret.jpg","imgNWTK/KeepItSecret.jpg","imgNWTK/FindOutNow.jpg","info","optim","2.67","","39","2","2","114","null","imgNWTK/FindOutNow.jpg","imgNWTK/KeepItSecret.jpg","imgNWTK/FindOutNow.jpg","NaN","NaN","","",""
"1980","","","bandit-task-exp6","49","463666","0.0-8.0-0.9","female","18","australia","34906","24708","imgNWTK/FindOutNow.jpg","imgNWTK/KeepItSecret.jpg","imgNWTK/KeepItSecret.jpg","imgNWTK/FindOutNow.jpg","info","optim","2.67","","40","1","1","71","null","imgNWTK/KeepItSecret.jpg","imgNWTK/FindOutNow.jpg","imgNWTK/KeepItSecret.jpg","NaN","NaN","","",""
"828","","","bandit-task-exp6","50","466885","0.0-8.0-0.10","female","18","australia","34906","24708","imgNWTK/FindOutNow.jpg","imgNWTK/KeepItSecret.jpg","imgNWTK/KeepItSecret.jpg","imgNWTK/FindOutNow.jpg","info","optim","2.67","","41","1","2","0","null","imgNWTK/KeepItSecret.jpg","imgNWTK/FindOutNow.jpg","imgNWTK/KeepItSecret.jpg","NaN","NaN","","",""
"518","","","bandit-task-exp6","51","469889","0.0-8.0-0.11","female","18","australia","34906","24708","imgNWTK/FindOutNow.jpg","imgNWTK/KeepItSecret.jpg","imgNWTK/KeepItSecret.jpg","imgNWTK/FindOutNow.jpg","info","optim","2.67","","42","2","2","122","null","imgNWTK/FindOutNow.jpg","imgNWTK/KeepItSecret.jpg","imgNWTK/FindOutNow.jpg","NaN","NaN","","",""
"692","","","bandit-task-exp6","52","473388","0.0-8.0-0.12","female","18","australia","34906","24708","imgNWTK/FindOutNow.jpg","imgNWTK/KeepItSecret.jpg","imgNWTK/KeepItSecret.jpg","imgNWTK/FindOutNow.jpg","info","optim","2.67","","43","1","2","0","null","imgNWTK/KeepItSecret.jpg","imgNWTK/FindOutNow.jpg","imgNWTK/KeepItSecret.jpg","NaN","NaN","","",""
"642","","","bandit-task-exp6","53","477205","0.0-8.0-0.13","female","18","australia","34906","24708","imgNWTK/FindOutNow.jpg","imgNWTK/KeepItSecret.jpg","imgNWTK/KeepItSecret.jpg","imgNWTK/FindOutNow.jpg","info","optim","2.67","","44","2","2","117","null","imgNWTK/FindOutNow.jpg","imgNWTK/KeepItSecret.jpg","imgNWTK/FindOutNow.jpg","NaN","NaN","","",""
"768","","","bandit-task-exp6","54","481675","0.0-8.0-0.14","female","18","australia","34906","24708","imgNWTK/FindOutNow.jpg","imgNWTK/KeepItSecret.jpg","imgNWTK/KeepItSecret.jpg","imgNWTK/FindOutNow.jpg","info","optim","2.67","","45","1","2","0","null","imgNWTK/KeepItSecret.jpg","imgNWTK/FindOutNow.jpg","imgNWTK/KeepItSecret.jpg","NaN","NaN","","",""
"null","<p><b> Congratulations, you have finished this block. </b> </p><p>Please take a short break before moving onto the next block.</p><p>The next block will start after a 15 second break.</p><b>Remember, the point rewards are the same between blocks","","html-keyboard-response","55","496683","0.0-9.0","female","18","australia","34906","24708","imgNWTK/FindOutNow.jpg","imgNWTK/KeepItSecret.jpg","imgNWTK/KeepItSecret.jpg","imgNWTK/FindOutNow.jpg","info","optim","2.67","","","","","","","","","","","","null","",""
"43082","","","bandit-task-exp6","56","543203","0.0-10.0-0.0","female","18","australia","34906","24708","imgNWTK/FindOutNow.jpg","imgNWTK/KeepItSecret.jpg","imgNWTK/KeepItSecret.jpg","imgNWTK/FindOutNow.jpg","info","optim","2.67","","46","1","1","87","null","imgNWTK/FindOutNow.jpg","imgNWTK/KeepItSecret.jpg","imgNWTK/KeepItSecret.jpg","20","20","","",""
"48522","","","bandit-task-exp6","57","595807","0.0-10.0-0.1","female","18","australia","34906","24708","imgNWTK/FindOutNow.jpg","imgNWTK/KeepItSecret.jpg","imgNWTK/KeepItSecret.jpg","imgNWTK/FindOutNow.jpg","info","optim","2.67","","47","2","1","0","null","imgNWTK/FindOutNow.jpg","imgNWTK/KeepItSecret.jpg","imgNWTK/FindOutNow.jpg","67","12","","",""
"9557","","","bandit-task-exp6","58","608962","0.0-10.0-0.2","female","18","australia","34906","24708","imgNWTK/FindOutNow.jpg","imgNWTK/KeepItSecret.jpg","imgNWTK/KeepItSecret.jpg","imgNWTK/FindOutNow.jpg","info","optim","2.67","","48","1","2","0","null","imgNWTK/FindOutNow.jpg","imgNWTK/KeepItSecret.jpg","imgNWTK/KeepItSecret.jpg","13","20","","",""
"5338","","","bandit-task-exp6","59","617809","0.0-10.0-0.3","female","18","australia","34906","24708","imgNWTK/FindOutNow.jpg","imgNWTK/KeepItSecret.jpg","imgNWTK/KeepItSecret.jpg","imgNWTK/FindOutNow.jpg","info","optim","2.67","","49","2","2","117","null","imgNWTK/KeepItSecret.jpg","imgNWTK/FindOutNow.jpg","imgNWTK/FindOutNow.jpg","78","22","","",""
"5227","","","bandit-task-exp6","60","628470","0.0-10.0-0.4","female","18","australia","34906","24708","imgNWTK/FindOutNow.jpg","imgNWTK/KeepItSecret.jpg","imgNWTK/KeepItSecret.jpg","imgNWTK/FindOutNow.jpg","info","optim","2.67","","50","1","1","79","null","imgNWTK/FindOutNow.jpg","imgNWTK/KeepItSecret.jpg","imgNWTK/KeepItSecret.jpg","77","23","","",""
"6767","","","bandit-task-exp6","61","638314","0.0-10.0-0.5","female","18","australia","34906","24708","imgNWTK/FindOutNow.jpg","imgNWTK/KeepItSecret.jpg","imgNWTK/KeepItSecret.jpg","imgNWTK/FindOutNow.jpg","info","optim","2.67","","51","1","1","82","null","imgNWTK/FindOutNow.jpg","imgNWTK/KeepItSecret.jpg","imgNWTK/KeepItSecret.jpg","12","12","","",""
"4444","","","bandit-task-exp6","62","646305","0.0-10.0-0.6","female","18","australia","34906","24708","imgNWTK/FindOutNow.jpg","imgNWTK/KeepItSecret.jpg","imgNWTK/KeepItSecret.jpg","imgNWTK/FindOutNow.jpg","info","optim","2.67","","52","1","1","85","null","imgNWTK/KeepItSecret.jpg","imgNWTK/FindOutNow.jpg","imgNWTK/KeepItSecret.jpg","12","12","","",""
"4411","","","bandit-task-exp6","63","654017","0.0-10.0-0.7","female","18","australia","34906","24708","imgNWTK/FindOutNow.jpg","imgNWTK/KeepItSecret.jpg","imgNWTK/KeepItSecret.jpg","imgNWTK/FindOutNow.jpg","info","optim","2.67","","53","2","2","114","null","imgNWTK/KeepItSecret.jpg","imgNWTK/FindOutNow.jpg","imgNWTK/FindOutNow.jpg","121","21","","",""
"5021","","","bandit-task-exp6","64","664272","0.0-10.0-0.8","female","18","australia","34906","24708","imgNWTK/FindOutNow.jpg","imgNWTK/KeepItSecret.jpg","imgNWTK/KeepItSecret.jpg","imgNWTK/FindOutNow.jpg","info","optim","2.67","","54","1","1","80","null","imgNWTK/KeepItSecret.jpg","imgNWTK/FindOutNow.jpg","imgNWTK/KeepItSecret.jpg","0","0","","",""
"5115","","","bandit-task-exp6","65","672722","0.0-10.0-0.9","female","18","australia","34906","24708","imgNWTK/FindOutNow.jpg","imgNWTK/KeepItSecret.jpg","imgNWTK/KeepItSecret.jpg","imgNWTK/FindOutNow.jpg","info","optim","2.67","","55","2","1","0","null","imgNWTK/KeepItSecret.jpg","imgNWTK/FindOutNow.jpg","imgNWTK/FindOutNow.jpg","77","77","","",""
"4579","","","bandit-task-exp6","66","680787","0.0-10.0-0.10","female","18","australia","34906","24708","imgNWTK/FindOutNow.jpg","imgNWTK/KeepItSecret.jpg","imgNWTK/KeepItSecret.jpg","imgNWTK/FindOutNow.jpg","info","optim","2.67","","56","1","1","78","null","imgNWTK/FindOutNow.jpg","imgNWTK/KeepItSecret.jpg","imgNWTK/KeepItSecret.jpg","22","22","","",""
"6771","","","bandit-task-exp6","67","690445","0.0-10.0-0.11","female","18","australia","34906","24708","imgNWTK/FindOutNow.jpg","imgNWTK/KeepItSecret.jpg","imgNWTK/KeepItSecret.jpg","imgNWTK/FindOutNow.jpg","info","optim","2.67","","57","1","2","0","null","imgNWTK/FindOutNow.jpg","imgNWTK/KeepItSecret.jpg","imgNWTK/KeepItSecret.jpg","33","33","","",""
"4015","","","bandit-task-exp6","68","697361","0.0-10.0-0.12","female","18","australia","34906","24708","imgNWTK/FindOutNow.jpg","imgNWTK/KeepItSecret.jpg","imgNWTK/KeepItSecret.jpg","imgNWTK/FindOutNow.jpg","info","optim","2.67","","58","2","2","113","null","imgNWTK/KeepItSecret.jpg","imgNWTK/FindOutNow.jpg","imgNWTK/FindOutNow.jpg","11","11","","",""
"20180","","","bandit-task-exp6","69","720299","0.0-10.0-0.13","female","18","australia","34906","24708","imgNWTK/FindOutNow.jpg","imgNWTK/KeepItSecret.jpg","imgNWTK/KeepItSecret.jpg","imgNWTK/FindOutNow.jpg","info","optim","2.67","","59","2","2","130","null","imgNWTK/KeepItSecret.jpg","imgNWTK/FindOutNow.jpg","imgNWTK/FindOutNow.jpg","111","11","","",""
"2826","","","bandit-task-exp6","70","726228","0.0-10.0-0.14","female","18","australia","34906","24708","imgNWTK/FindOutNow.jpg","imgNWTK/KeepItSecret.jpg","imgNWTK/KeepItSecret.jpg","imgNWTK/FindOutNow.jpg","info","optim","2.67","","60","2","2","114","null","imgNWTK/KeepItSecret.jpg","imgNWTK/FindOutNow.jpg","imgNWTK/FindOutNow.jpg","11","111","","",""
"989","<p> Congratulations, you have finished the main part of the experiment. </p><p>Before you finish, we have a few short questions about the options and outcomes you saw in the task.</p>","0","html-button-response","71","727222","0.0-11.0","female","18","australia","34906","24708","imgNWTK/FindOutNow.jpg","imgNWTK/KeepItSecret.jpg","imgNWTK/KeepItSecret.jpg","imgNWTK/FindOutNow.jpg","info","optim","2.67","","","","","","","","","","","","","",""
"2077","<p><b>Now, imagine that you clicked on the below button for another 10 trials (this includes <i> BOTH WIN and NO-WIN trials</i>).</p> <img src= 'imgNWTK/KeepItSecret.jpg'></img></br></br> <p><b>Please type the reward (number of points) you would expect to receive on every trial.</br> Click start to begin.</p>","0","html-button-response","72","729302","0.0-12.0","female","18","australia","34906","24708","imgNWTK/FindOutNow.jpg","imgNWTK/KeepItSecret.jpg","imgNWTK/KeepItSecret.jpg","imgNWTK/FindOutNow.jpg","info","optim","2.67","","","","","","","","","","","","","",""
"1952","","","survey-number","73","731263","0.0-13.0-0.0","female","18","australia","34906","24708","imgNWTK/FindOutNow.jpg","imgNWTK/KeepItSecret.jpg","imgNWTK/KeepItSecret.jpg","imgNWTK/FindOutNow.jpg","info","optim","2.67","{""undefined"":""11""}","","","","","","","","","","","","imgNWTK/KeepItSecret.jpg",""
"4109.700000017881","","","survey-number","74","735378","0.0-13.0-0.1","female","18","australia","34906","24708","imgNWTK/FindOutNow.jpg","imgNWTK/KeepItSecret.jpg","imgNWTK/KeepItSecret.jpg","imgNWTK/FindOutNow.jpg","info","optim","2.67","{""undefined"":""11""}","","","","","","","","","","","","imgNWTK/KeepItSecret.jpg",""
"2628.9000000059605","","","survey-number","75","738013","0.0-13.0-0.2","female","18","australia","34906","24708","imgNWTK/FindOutNow.jpg","imgNWTK/KeepItSecret.jpg","imgNWTK/KeepItSecret.jpg","imgNWTK/FindOutNow.jpg","info","optim","2.67","{""undefined"":""121""}","","","","","","","","","","","","imgNWTK/KeepItSecret.jpg",""
"1779.8999999761581","","","survey-number","76","739797","0.0-13.0-0.3","female","18","australia","34906","24708","imgNWTK/FindOutNow.jpg","imgNWTK/KeepItSecret.jpg","imgNWTK/KeepItSecret.jpg","imgNWTK/FindOutNow.jpg","info","optim","2.67","{""undefined"":""21""}","","","","","","","","","","","","imgNWTK/KeepItSecret.jpg",""
"3724.800000011921","","","survey-number","77","743525","0.0-13.0-0.4","female","18","australia","34906","24708","imgNWTK/FindOutNow.jpg","imgNWTK/KeepItSecret.jpg","imgNWTK/KeepItSecret.jpg","imgNWTK/FindOutNow.jpg","info","optim","2.67","{""undefined"":""9""}","","","","","","","","","","","","imgNWTK/KeepItSecret.jpg",""
"6023","","","survey-number","78","749553","0.0-13.0-0.5","female","18","australia","34906","24708","imgNWTK/FindOutNow.jpg","imgNWTK/KeepItSecret.jpg","imgNWTK/KeepItSecret.jpg","imgNWTK/FindOutNow.jpg","info","optim","2.67","{""undefined"":""43""}","","","","","","","","","","","","imgNWTK/KeepItSecret.jpg",""
"5806.600000023842","","","survey-number","79","755365","0.0-13.0-0.6","female","18","australia","34906","24708","imgNWTK/FindOutNow.jpg","imgNWTK/KeepItSecret.jpg","imgNWTK/KeepItSecret.jpg","imgNWTK/FindOutNow.jpg","info","optim","2.67","{""undefined"":""0""}","","","","","","","","","","","","imgNWTK/KeepItSecret.jpg",""
"2086.9000000059605","","","survey-number","80","757459","0.0-13.0-0.7","female","18","australia","34906","24708","imgNWTK/FindOutNow.jpg","imgNWTK/KeepItSecret.jpg","imgNWTK/KeepItSecret.jpg","imgNWTK/FindOutNow.jpg","info","optim","2.67","{""undefined"":""0""}","","","","","","","","","","","","imgNWTK/KeepItSecret.jpg",""
"11685","","","survey-number","81","769150","0.0-13.0-0.8","female","18","australia","34906","24708","imgNWTK/FindOutNow.jpg","imgNWTK/KeepItSecret.jpg","imgNWTK/KeepItSecret.jpg","imgNWTK/FindOutNow.jpg","info","optim","2.67","{""undefined"":""0""}","","","","","","","","","","","","imgNWTK/KeepItSecret.jpg",""
"2090.699999988079","","","survey-number","82","771248","0.0-13.0-0.9","female","18","australia","34906","24708","imgNWTK/FindOutNow.jpg","imgNWTK/KeepItSecret.jpg","imgNWTK/KeepItSecret.jpg","imgNWTK/FindOutNow.jpg","info","optim","2.67","{""undefined"":""12""}","","","","","","","","","","","","imgNWTK/KeepItSecret.jpg",""
"2132","<p><b>Imagine that you clicked on the below button for another 10 trials (this includes <i> both WIN and NO-WIN trials</i>).</p> <img src= 'imgNWTK/FindOutNow.jpg'></img></br></br> <p><b>Please type the reward (number of points) you would expect to receive on every trial.</br> Click start to begin.</p>","0","html-button-response","83","773384","0.0-14.0","female","18","australia","34906","24708","imgNWTK/FindOutNow.jpg","imgNWTK/KeepItSecret.jpg","imgNWTK/KeepItSecret.jpg","imgNWTK/FindOutNow.jpg","info","optim","2.67","","","","","","","","","","","","","",""
"1402.300000011921","","","survey-number","84","774792","0.0-15.0-0.0","female","18","australia","34906","24708","imgNWTK/FindOutNow.jpg","imgNWTK/KeepItSecret.jpg","imgNWTK/KeepItSecret.jpg","imgNWTK/FindOutNow.jpg","info","optim","2.67","{""undefined"":""12""}","","","","","","","","","","","","imgNWTK/FindOutNow.jpg",""
"975.0999999940395","","","survey-number","85","775773","0.0-15.0-0.1","female","18","australia","34906","24708","imgNWTK/FindOutNow.jpg","imgNWTK/KeepItSecret.jpg","imgNWTK/KeepItSecret.jpg","imgNWTK/FindOutNow.jpg","info","optim","2.67","{""undefined"":""2""}","","","","","","","","","","","","imgNWTK/FindOutNow.jpg",""
"624.3000000119209","","","survey-number","86","776405","0.0-15.0-0.2","female","18","australia","34906","24708","imgNWTK/FindOutNow.jpg","imgNWTK/KeepItSecret.jpg","imgNWTK/KeepItSecret.jpg","imgNWTK/FindOutNow.jpg","info","optim","2.67","{""undefined"":""2""}","","","","","","","","","","","","imgNWTK/FindOutNow.jpg",""
"329.40000000596046","","","survey-number","87","776742","0.0-15.0-0.3","female","18","australia","34906","24708","imgNWTK/FindOutNow.jpg","imgNWTK/KeepItSecret.jpg","imgNWTK/KeepItSecret.jpg","imgNWTK/FindOutNow.jpg","info","optim","2.67","{""undefined"":""2""}","","","","","","","","","","","","imgNWTK/FindOutNow.jpg",""
"245.5","","","survey-number","88","776993","0.0-15.0-0.4","female","18","australia","34906","24708","imgNWTK/FindOutNow.jpg","imgNWTK/KeepItSecret.jpg","imgNWTK/KeepItSecret.jpg","imgNWTK/FindOutNow.jpg","info","optim","2.67","{""undefined"":""2""}","","","","","","","","","","","","imgNWTK/FindOutNow.jpg",""
"199.5","","","survey-number","89","777199","0.0-15.0-0.5","female","18","australia","34906","24708","imgNWTK/FindOutNow.jpg","imgNWTK/KeepItSecret.jpg","imgNWTK/KeepItSecret.jpg","imgNWTK/FindOutNow.jpg","info","optim","2.67","{""undefined"":""2""}","","","","","","","","","","","","imgNWTK/FindOutNow.jpg",""
"155.90000000596046","","","survey-number","90","777361","0.0-15.0-0.6","female","18","australia","34906","24708","imgNWTK/FindOutNow.jpg","imgNWTK/KeepItSecret.jpg","imgNWTK/KeepItSecret.jpg","imgNWTK/FindOutNow.jpg","info","optim","2.67","{""undefined"":""2""}","","","","","","","","","","","","imgNWTK/FindOutNow.jpg",""
"237.09999999403954","","","survey-number","91","777604","0.0-15.0-0.7","female","18","australia","34906","24708","imgNWTK/FindOutNow.jpg","imgNWTK/KeepItSecret.jpg","imgNWTK/KeepItSecret.jpg","imgNWTK/FindOutNow.jpg","info","optim","2.67","{""undefined"":""2""}","","","","","","","","","","","","imgNWTK/FindOutNow.jpg",""
"112.7000000178814","","","survey-number","92","777722","0.0-15.0-0.8","female","18","australia","34906","24708","imgNWTK/FindOutNow.jpg","imgNWTK/KeepItSecret.jpg","imgNWTK/KeepItSecret.jpg","imgNWTK/FindOutNow.jpg","info","optim","2.67","{""undefined"":""2""}","","","","","","","","","","","","imgNWTK/FindOutNow.jpg",""
"119.69999998807907","","","survey-number","93","777848","0.0-15.0-0.9","female","18","australia","34906","24708","imgNWTK/FindOutNow.jpg","imgNWTK/KeepItSecret.jpg","imgNWTK/KeepItSecret.jpg","imgNWTK/FindOutNow.jpg","info","optim","2.67","{""undefined"":""2""}","","","","","","","","","","","","imgNWTK/FindOutNow.jpg",""
"70538","","","survey-number","94","848418","0.0-16.0","female","18","australia","34906","24708","imgNWTK/FindOutNow.jpg","imgNWTK/KeepItSecret.jpg","imgNWTK/KeepItSecret.jpg","imgNWTK/FindOutNow.jpg","info","optim","2.67","{""undefined"":""0""}","","","","","","","","","","","","","imgNWTK/FindOutNow.jpg"
"3116.800000011921","","","survey-number","95","851543","0.0-17.0","female","18","australia","34906","24708","imgNWTK/FindOutNow.jpg","imgNWTK/KeepItSecret.jpg","imgNWTK/KeepItSecret.jpg","imgNWTK/FindOutNow.jpg","info","optim","2.67","{""undefined"":""0""}","","","","","","","","","","","","","imgNWTK/KeepItSecret.jpg"
"1223","<p style=""text-align:left;"">Great! We are almost at the end of the study... (Please do not close the browser window yet.)</p><p> Your final points balance is 2667, which equals to a bonus payment of $2.67. Please collect your payment from Mathews Building Room 721 (Mon-Fri 9am-5pm); please email amy.x.li@unsw.edu.au at least 24 hours prior to collection so that this is ready for you.</p><p style=""text-align:left;"">To view the debriefing form, please click <a href=""./imgNWTK/debrief_3205.pdf"" target=""_blank"">here</a> to download a copy.</p><p style=""text-align:left;"">Then, <b>please click the below button</b> to confirm that you have received your debrief and to complete the study. Upon clicking ""Finish!"", your SONA credit will be automatically assigned.</p>","0","html-button-response","96","852768","0.0-18.0","female","18","australia","34906","24708","imgNWTK/FindOutNow.jpg","imgNWTK/KeepItSecret.jpg","imgNWTK/KeepItSecret.jpg","imgNWTK/FindOutNow.jpg","info","optim","2.67","","","","","","","","","","","","","",""
