"rt","stimulus","button_pressed","trial_type","trial_index","time_elapsed","internal_node_id","gender","age","language","PID","sona_id","subStim","optStim","stim1","stim2","infoCond","optimCond","bonus","responses","banditTrial","choice","cue","feedback","estimateData","leftOption","rightOption","choiceName","leftInput","rightInput","key_press","postQ","singleEst"
"9326","<p>Thank you for signing up to participate in SONA Study 465! <br> During this study, please focus on the experiment and refrain from activities such as:</p>- <b>Switching to other tabs on your browser (this will be monitored via the experiment)</br> - Using your mobile phone/cell phone</br> - Communicating with others</br></br></b><p>This way, you are helping to provide data that is useful for psychological research. We thank you for your cooperation!</p>","0","html-button-response","0","9329","0.0-0.0","female","21","australia","71023","26087","imgNWTK/triangle.png","imgNWTK/square.png","imgNWTK/triangle.png","imgNWTK/square.png","noninfo","sub","1.92","","","","","","","","","","","","","",""
"1287","<p>Welcome to the experiment!</p><p>You will now read some instructions about the task. Press the 'Next' button to continue. </p>","0","html-button-response","1","10618","0.0-1.0","female","21","australia","71023","26087","imgNWTK/triangle.png","imgNWTK/square.png","imgNWTK/triangle.png","imgNWTK/square.png","noninfo","sub","1.92","","","","","","","","","","","","","",""
"24381","<p> On each trial throughout the experiment you will choose between two options, </br>a <b>Black Square </b> and <b> Black Triangle </b>, as seen below.</p><div><div style= 'float: left; width: 300px; margin: 10px 10px;'><img src= 'imgNWTK/square.png'></img></div><div style= 'float: right; width: 300px; margin: 10px 10px;'><img src= 'imgNWTK/triangle.png'></img></div></div><br/><br/><br/><br/><br/><br/><br/><br/><br/><br/><br/><p>Each option results in winning points or receiving 0 points.</br>There is a 50% chance of either winning or receiving 0 points.</p><p>You won't receive the outcome until after a <b> 20 second delay</b>.</p>","0","html-button-response","2","35002","0.0-2.0-0.0","female","21","australia","71023","26087","imgNWTK/triangle.png","imgNWTK/square.png","imgNWTK/triangle.png","imgNWTK/square.png","noninfo","sub","1.92","","","","","","","","","","","","","",""
"28871","<img src= 'imgNWTK/NonInfoDiagram.png'></img><p>As seen above, whether you choose the square or triangle, you will receive a coloured circle after the choice. </p> <p>This circle will be on screen for 20 seconds until you win points or receive 0 points.</p><p>The coloured circle depends on which option you chose. </br> In the above example, choosing a triangle leads to a green circle and choosing the square leads to a red circle.</p>Please note: the circles in your task will be different to the above colours.</br></br>","0","html-button-response","3","63875","0.0-2.0-1.0","female","21","australia","71023","26087","imgNWTK/triangle.png","imgNWTK/square.png","imgNWTK/triangle.png","imgNWTK/square.png","noninfo","sub","1.92","","","","","","","","","","","","","",""
"22660","<img src= 'cues/winTrials_noInfo.png' width = '1200'></img><p>To reiterate, 50% of the outcomes of each option will be WIN TRIALS, and the other 50% will be NO-WIN TRIALS.","0","html-button-response","4","86537","0.0-2.0-2.0","female","21","australia","71023","26087","imgNWTK/triangle.png","imgNWTK/square.png","imgNWTK/triangle.png","imgNWTK/square.png","noninfo","sub","1.92","","","","","","","","","","","","","",""
"18462","<p> There will be <b>four blocks</b> in the experiment.</br>You will be given a short 15 second break between each block.</p><p><b>The points and the options will remain the same between the blocks.</b></p>The blocks are there just to give you a small break.</br></br></br></br><p>The points you earn in the task are also equal to <b> actual money</b>.</br> <b>1000 points is equal to $1 AUD</b></p><p>This is the rate you will be paid at the experiment's end.","0","html-button-response","5","105000","0.0-2.0-3.0","female","21","australia","71023","26087","imgNWTK/triangle.png","imgNWTK/square.png","imgNWTK/triangle.png","imgNWTK/square.png","noninfo","sub","1.92","","","","","","","","","","","","","",""
"16030","","","survey-multi-choice","6","121037","0.0-2.0-4.0","female","21","australia","71023","26087","imgNWTK/triangle.png","imgNWTK/square.png","imgNWTK/triangle.png","imgNWTK/square.png","noninfo","sub","1.92","{""Q0"":""20 Seconds"",""Q1"":""True"",""Q2"":""Equally""}","","","","","","","","","","","","",""
"4663","<p> Well done, all your answers were correct! <br> The experiment is about to start now. <br/> Click start to continue, or email your researcher <b>(amy.x.li@unsw.edu.au)</b> if you have any questions before starting.","0","html-button-response","7","125702","0.0-3.0","female","21","australia","71023","26087","imgNWTK/triangle.png","imgNWTK/square.png","imgNWTK/triangle.png","imgNWTK/square.png","noninfo","sub","1.92","","","","","","","","","","","","","",""
"2973","","","bandit-task-exp6","8","150921","0.0-4.0-0.0","female","21","australia","71023","26087","imgNWTK/triangle.png","imgNWTK/square.png","imgNWTK/triangle.png","imgNWTK/square.png","noninfo","sub","1.92","","1","2","2","84","null","imgNWTK/triangle.png","imgNWTK/square.png","imgNWTK/square.png","NaN","NaN","","",""
"1216","","","bandit-task-exp6","9","174426","0.0-4.0-0.1","female","21","australia","71023","26087","imgNWTK/triangle.png","imgNWTK/square.png","imgNWTK/triangle.png","imgNWTK/square.png","noninfo","sub","1.92","","2","1","2","0","null","imgNWTK/triangle.png","imgNWTK/square.png","imgNWTK/triangle.png","NaN","NaN","","",""
"2740","","","bandit-task-exp6","10","199863","0.0-4.0-0.2","female","21","australia","71023","26087","imgNWTK/triangle.png","imgNWTK/square.png","imgNWTK/triangle.png","imgNWTK/square.png","noninfo","sub","1.92","","3","1","2","0","null","imgNWTK/square.png","imgNWTK/triangle.png","imgNWTK/triangle.png","NaN","NaN","","",""
"1083","","","bandit-task-exp6","11","223782","0.0-4.0-0.3","female","21","australia","71023","26087","imgNWTK/triangle.png","imgNWTK/square.png","imgNWTK/triangle.png","imgNWTK/square.png","noninfo","sub","1.92","","4","2","1","0","null","imgNWTK/triangle.png","imgNWTK/square.png","imgNWTK/square.png","NaN","NaN","","",""
"897","","","bandit-task-exp6","12","247148","0.0-4.0-0.4","female","21","australia","71023","26087","imgNWTK/triangle.png","imgNWTK/square.png","imgNWTK/triangle.png","imgNWTK/square.png","noninfo","sub","1.92","","5","1","2","0","null","imgNWTK/triangle.png","imgNWTK/square.png","imgNWTK/triangle.png","NaN","NaN","","",""
"1849","","","bandit-task-exp6","13","271866","0.0-4.0-0.5","female","21","australia","71023","26087","imgNWTK/triangle.png","imgNWTK/square.png","imgNWTK/triangle.png","imgNWTK/square.png","noninfo","sub","1.92","","6","2","1","0","null","imgNWTK/square.png","imgNWTK/triangle.png","imgNWTK/square.png","NaN","NaN","","",""
"1175","","","bandit-task-exp6","14","304095","0.0-4.0-0.6","female","21","australia","71023","26087","imgNWTK/triangle.png","imgNWTK/square.png","imgNWTK/triangle.png","imgNWTK/square.png","noninfo","sub","1.92","","7","2","2","89","null","imgNWTK/square.png","imgNWTK/triangle.png","imgNWTK/square.png","NaN","NaN","","",""
"1094","","","bandit-task-exp6","15","329087","0.0-4.0-0.7","female","21","australia","71023","26087","imgNWTK/triangle.png","imgNWTK/square.png","imgNWTK/triangle.png","imgNWTK/square.png","noninfo","sub","1.92","","8","2","1","0","null","imgNWTK/square.png","imgNWTK/triangle.png","imgNWTK/square.png","NaN","NaN","","",""
"684","","","bandit-task-exp6","16","355892","0.0-4.0-0.8","female","21","australia","71023","26087","imgNWTK/triangle.png","imgNWTK/square.png","imgNWTK/triangle.png","imgNWTK/square.png","noninfo","sub","1.92","","9","2","1","0","null","imgNWTK/square.png","imgNWTK/triangle.png","imgNWTK/square.png","NaN","NaN","","",""
"1662","","","bandit-task-exp6","17","380211","0.0-4.0-0.9","female","21","australia","71023","26087","imgNWTK/triangle.png","imgNWTK/square.png","imgNWTK/triangle.png","imgNWTK/square.png","noninfo","sub","1.92","","10","1","1","129","null","imgNWTK/square.png","imgNWTK/triangle.png","imgNWTK/triangle.png","NaN","NaN","","",""
"1965","","","bandit-task-exp6","18","406370","0.0-4.0-0.10","female","21","australia","71023","26087","imgNWTK/triangle.png","imgNWTK/square.png","imgNWTK/triangle.png","imgNWTK/square.png","noninfo","sub","1.92","","11","2","1","0","null","imgNWTK/triangle.png","imgNWTK/square.png","imgNWTK/square.png","NaN","NaN","","",""
"749","","","bandit-task-exp6","19","432659","0.0-4.0-0.11","female","21","australia","71023","26087","imgNWTK/triangle.png","imgNWTK/square.png","imgNWTK/triangle.png","imgNWTK/square.png","noninfo","sub","1.92","","12","2","1","0","null","imgNWTK/triangle.png","imgNWTK/square.png","imgNWTK/square.png","NaN","NaN","","",""
"826","","","bandit-task-exp6","20","456512","0.0-4.0-0.12","female","21","australia","71023","26087","imgNWTK/triangle.png","imgNWTK/square.png","imgNWTK/triangle.png","imgNWTK/square.png","noninfo","sub","1.92","","13","2","2","79","null","imgNWTK/square.png","imgNWTK/triangle.png","imgNWTK/square.png","NaN","NaN","","",""
"1002","","","bandit-task-exp6","21","480227","0.0-4.0-0.13","female","21","australia","71023","26087","imgNWTK/triangle.png","imgNWTK/square.png","imgNWTK/triangle.png","imgNWTK/square.png","noninfo","sub","1.92","","14","1","2","0","null","imgNWTK/square.png","imgNWTK/triangle.png","imgNWTK/triangle.png","NaN","NaN","","",""
"831","","","bandit-task-exp6","22","503934","0.0-4.0-0.14","female","21","australia","71023","26087","imgNWTK/triangle.png","imgNWTK/square.png","imgNWTK/triangle.png","imgNWTK/square.png","noninfo","sub","1.92","","15","2","1","0","null","imgNWTK/triangle.png","imgNWTK/square.png","imgNWTK/square.png","NaN","NaN","","",""
"null","<p><b> Congratulations, you have finished this block. </b> </p><p>Please take a short break before moving onto the next block.</p><p>The next block will start after a 15 second break.</p><b>Remember, the point rewards are the same between blocks","","html-keyboard-response","23","518940","0.0-5.0","female","21","australia","71023","26087","imgNWTK/triangle.png","imgNWTK/square.png","imgNWTK/triangle.png","imgNWTK/square.png","noninfo","sub","1.92","","","","","","","","","","","","null","",""
"2075","","","bandit-task-exp6","24","544169","0.0-6.0-0.0","female","21","australia","71023","26087","imgNWTK/triangle.png","imgNWTK/square.png","imgNWTK/triangle.png","imgNWTK/square.png","noninfo","sub","1.92","","16","2","1","0","null","imgNWTK/triangle.png","imgNWTK/square.png","imgNWTK/square.png","NaN","NaN","","",""
"685","","","bandit-task-exp6","25","569394","0.0-6.0-0.1","female","21","australia","71023","26087","imgNWTK/triangle.png","imgNWTK/square.png","imgNWTK/triangle.png","imgNWTK/square.png","noninfo","sub","1.92","","17","2","1","0","null","imgNWTK/triangle.png","imgNWTK/square.png","imgNWTK/square.png","NaN","NaN","","",""
"559","","","bandit-task-exp6","26","592545","0.0-6.0-0.2","female","21","australia","71023","26087","imgNWTK/triangle.png","imgNWTK/square.png","imgNWTK/triangle.png","imgNWTK/square.png","noninfo","sub","1.92","","18","2","1","0","null","imgNWTK/triangle.png","imgNWTK/square.png","imgNWTK/square.png","NaN","NaN","","",""
"579","","","bandit-task-exp6","27","615764","0.0-6.0-0.3","female","21","australia","71023","26087","imgNWTK/triangle.png","imgNWTK/square.png","imgNWTK/triangle.png","imgNWTK/square.png","noninfo","sub","1.92","","19","1","2","0","null","imgNWTK/square.png","imgNWTK/triangle.png","imgNWTK/triangle.png","NaN","NaN","","",""
"707","","","bandit-task-exp6","28","640188","0.0-6.0-0.4","female","21","australia","71023","26087","imgNWTK/triangle.png","imgNWTK/square.png","imgNWTK/triangle.png","imgNWTK/square.png","noninfo","sub","1.92","","20","1","2","0","null","imgNWTK/square.png","imgNWTK/triangle.png","imgNWTK/triangle.png","NaN","NaN","","",""
"2054","","","bandit-task-exp6","29","664989","0.0-6.0-0.5","female","21","australia","71023","26087","imgNWTK/triangle.png","imgNWTK/square.png","imgNWTK/triangle.png","imgNWTK/square.png","noninfo","sub","1.92","","21","2","1","0","null","imgNWTK/triangle.png","imgNWTK/square.png","imgNWTK/square.png","NaN","NaN","","",""
"635","","","bandit-task-exp6","30","687664","0.0-6.0-0.6","female","21","australia","71023","26087","imgNWTK/triangle.png","imgNWTK/square.png","imgNWTK/triangle.png","imgNWTK/square.png","noninfo","sub","1.92","","22","1","2","0","null","imgNWTK/triangle.png","imgNWTK/square.png","imgNWTK/triangle.png","NaN","NaN","","",""
"1344","","","bandit-task-exp6","31","712511","0.0-6.0-0.7","female","21","australia","71023","26087","imgNWTK/triangle.png","imgNWTK/square.png","imgNWTK/triangle.png","imgNWTK/square.png","noninfo","sub","1.92","","23","1","2","0","null","imgNWTK/square.png","imgNWTK/triangle.png","imgNWTK/triangle.png","NaN","NaN","","",""
"684","","","bandit-task-exp6","32","741830","0.0-6.0-0.8","female","21","australia","71023","26087","imgNWTK/triangle.png","imgNWTK/square.png","imgNWTK/triangle.png","imgNWTK/square.png","noninfo","sub","1.92","","24","1","1","121","null","imgNWTK/triangle.png","imgNWTK/square.png","imgNWTK/triangle.png","NaN","NaN","","",""
"652","","","bandit-task-exp6","33","764774","0.0-6.0-0.9","female","21","australia","71023","26087","imgNWTK/triangle.png","imgNWTK/square.png","imgNWTK/triangle.png","imgNWTK/square.png","noninfo","sub","1.92","","25","2","2","83","null","imgNWTK/triangle.png","imgNWTK/square.png","imgNWTK/square.png","NaN","NaN","","",""
"871","","","bandit-task-exp6","34","787741","0.0-6.0-0.10","female","21","australia","71023","26087","imgNWTK/triangle.png","imgNWTK/square.png","imgNWTK/triangle.png","imgNWTK/square.png","noninfo","sub","1.92","","26","1","1","116","null","imgNWTK/square.png","imgNWTK/triangle.png","imgNWTK/triangle.png","NaN","NaN","","",""
"825","","","bandit-task-exp6","35","811531","0.0-6.0-0.11","female","21","australia","71023","26087","imgNWTK/triangle.png","imgNWTK/square.png","imgNWTK/triangle.png","imgNWTK/square.png","noninfo","sub","1.92","","27","2","1","0","null","imgNWTK/square.png","imgNWTK/triangle.png","imgNWTK/square.png","NaN","NaN","","",""
"569","","","bandit-task-exp6","36","847866","0.0-6.0-0.12","female","21","australia","71023","26087","imgNWTK/triangle.png","imgNWTK/square.png","imgNWTK/triangle.png","imgNWTK/square.png","noninfo","sub","1.92","","28","2","1","0","null","imgNWTK/triangle.png","imgNWTK/square.png","imgNWTK/square.png","NaN","NaN","","",""
"763","","","bandit-task-exp6","37","870470","0.0-6.0-0.13","female","21","australia","71023","26087","imgNWTK/triangle.png","imgNWTK/square.png","imgNWTK/triangle.png","imgNWTK/square.png","noninfo","sub","1.92","","29","2","1","0","null","imgNWTK/triangle.png","imgNWTK/square.png","imgNWTK/square.png","NaN","NaN","","",""
"987","","","bandit-task-exp6","38","893127","0.0-6.0-0.14","female","21","australia","71023","26087","imgNWTK/triangle.png","imgNWTK/square.png","imgNWTK/triangle.png","imgNWTK/square.png","noninfo","sub","1.92","","30","2","2","70","null","imgNWTK/square.png","imgNWTK/triangle.png","imgNWTK/square.png","NaN","NaN","","",""
"null","<p><b> Congratulations, you have finished this block. </b> </p><p>Please take a short break before moving onto the next block.</p><p>The next block will start after a 15 second break.</p><b>Remember, the point rewards are the same between blocks","","html-keyboard-response","39","908133","0.0-7.0","female","21","australia","71023","26087","imgNWTK/triangle.png","imgNWTK/square.png","imgNWTK/triangle.png","imgNWTK/square.png","noninfo","sub","1.92","","","","","","","","","","","","null","",""
"1397","","","bandit-task-exp6","40","931452","0.0-8.0-0.0","female","21","australia","71023","26087","imgNWTK/triangle.png","imgNWTK/square.png","imgNWTK/triangle.png","imgNWTK/square.png","noninfo","sub","1.92","","31","2","1","0","null","imgNWTK/triangle.png","imgNWTK/square.png","imgNWTK/square.png","NaN","NaN","","",""
"895","","","bandit-task-exp6","41","954239","0.0-8.0-0.1","female","21","australia","71023","26087","imgNWTK/triangle.png","imgNWTK/square.png","imgNWTK/triangle.png","imgNWTK/square.png","noninfo","sub","1.92","","32","2","2","71","null","imgNWTK/triangle.png","imgNWTK/square.png","imgNWTK/square.png","NaN","NaN","","",""
"2211","","","bandit-task-exp6","42","978391","0.0-8.0-0.2","female","21","australia","71023","26087","imgNWTK/triangle.png","imgNWTK/square.png","imgNWTK/triangle.png","imgNWTK/square.png","noninfo","sub","1.92","","33","1","1","122","null","imgNWTK/square.png","imgNWTK/triangle.png","imgNWTK/triangle.png","NaN","NaN","","",""
"2593","","","bandit-task-exp6","43","1002923","0.0-8.0-0.3","female","21","australia","71023","26087","imgNWTK/triangle.png","imgNWTK/square.png","imgNWTK/triangle.png","imgNWTK/square.png","noninfo","sub","1.92","","34","2","1","0","null","imgNWTK/square.png","imgNWTK/triangle.png","imgNWTK/square.png","NaN","NaN","","",""
"782","","","bandit-task-exp6","44","1025757","0.0-8.0-0.4","female","21","australia","71023","26087","imgNWTK/triangle.png","imgNWTK/square.png","imgNWTK/triangle.png","imgNWTK/square.png","noninfo","sub","1.92","","35","2","2","71","null","imgNWTK/square.png","imgNWTK/triangle.png","imgNWTK/square.png","NaN","NaN","","",""
"1117","","","bandit-task-exp6","45","1048710","0.0-8.0-0.5","female","21","australia","71023","26087","imgNWTK/triangle.png","imgNWTK/square.png","imgNWTK/triangle.png","imgNWTK/square.png","noninfo","sub","1.92","","36","2","1","0","null","imgNWTK/triangle.png","imgNWTK/square.png","imgNWTK/square.png","NaN","NaN","","",""
"1010","","","bandit-task-exp6","46","1072075","0.0-8.0-0.6","female","21","australia","71023","26087","imgNWTK/triangle.png","imgNWTK/square.png","imgNWTK/triangle.png","imgNWTK/square.png","noninfo","sub","1.92","","37","2","2","70","null","imgNWTK/square.png","imgNWTK/triangle.png","imgNWTK/square.png","NaN","NaN","","",""
"1518","","","bandit-task-exp6","47","1095226","0.0-8.0-0.7","female","21","australia","71023","26087","imgNWTK/triangle.png","imgNWTK/square.png","imgNWTK/triangle.png","imgNWTK/square.png","noninfo","sub","1.92","","38","2","1","0","null","imgNWTK/square.png","imgNWTK/triangle.png","imgNWTK/square.png","NaN","NaN","","",""
"846","","","bandit-task-exp6","48","1122278","0.0-8.0-0.8","female","21","australia","71023","26087","imgNWTK/triangle.png","imgNWTK/square.png","imgNWTK/triangle.png","imgNWTK/square.png","noninfo","sub","1.92","","39","2","1","0","null","imgNWTK/triangle.png","imgNWTK/square.png","imgNWTK/square.png","NaN","NaN","","",""
"881","","","bandit-task-exp6","49","1144952","0.0-8.0-0.9","female","21","australia","71023","26087","imgNWTK/triangle.png","imgNWTK/square.png","imgNWTK/triangle.png","imgNWTK/square.png","noninfo","sub","1.92","","40","2","1","0","null","imgNWTK/triangle.png","imgNWTK/square.png","imgNWTK/square.png","NaN","NaN","","",""
"1165","","","bandit-task-exp6","50","1167719","0.0-8.0-0.10","female","21","australia","71023","26087","imgNWTK/triangle.png","imgNWTK/square.png","imgNWTK/triangle.png","imgNWTK/square.png","noninfo","sub","1.92","","41","1","2","0","null","imgNWTK/square.png","imgNWTK/triangle.png","imgNWTK/triangle.png","NaN","NaN","","",""
"993","","","bandit-task-exp6","51","1190557","0.0-8.0-0.11","female","21","australia","71023","26087","imgNWTK/triangle.png","imgNWTK/square.png","imgNWTK/triangle.png","imgNWTK/square.png","noninfo","sub","1.92","","42","1","2","0","null","imgNWTK/square.png","imgNWTK/triangle.png","imgNWTK/triangle.png","NaN","NaN","","",""
"922","","","bandit-task-exp6","52","1213823","0.0-8.0-0.12","female","21","australia","71023","26087","imgNWTK/triangle.png","imgNWTK/square.png","imgNWTK/triangle.png","imgNWTK/square.png","noninfo","sub","1.92","","43","1","1","115","null","imgNWTK/square.png","imgNWTK/triangle.png","imgNWTK/triangle.png","NaN","NaN","","",""
"892","","","bandit-task-exp6","53","1237020","0.0-8.0-0.13","female","21","australia","71023","26087","imgNWTK/triangle.png","imgNWTK/square.png","imgNWTK/triangle.png","imgNWTK/square.png","noninfo","sub","1.92","","44","2","1","0","null","imgNWTK/triangle.png","imgNWTK/square.png","imgNWTK/square.png","NaN","NaN","","",""
"1260","","","bandit-task-exp6","54","1260048","0.0-8.0-0.14","female","21","australia","71023","26087","imgNWTK/triangle.png","imgNWTK/square.png","imgNWTK/triangle.png","imgNWTK/square.png","noninfo","sub","1.92","","45","2","2","78","null","imgNWTK/square.png","imgNWTK/triangle.png","imgNWTK/square.png","NaN","NaN","","",""
"null","<p><b> Congratulations, you have finished this block. </b> </p><p>Please take a short break before moving onto the next block.</p><p>The next block will start after a 15 second break.</p><b>Remember, the point rewards are the same between blocks","","html-keyboard-response","55","1275053","0.0-9.0","female","21","australia","71023","26087","imgNWTK/triangle.png","imgNWTK/square.png","imgNWTK/triangle.png","imgNWTK/square.png","noninfo","sub","1.92","","","","","","","","","","","","null","",""
"26999","","","bandit-task-exp6","56","1324454","0.0-10.0-0.0","female","21","australia","71023","26087","imgNWTK/triangle.png","imgNWTK/square.png","imgNWTK/triangle.png","imgNWTK/square.png","noninfo","sub","1.92","","46","2","2","86","null","imgNWTK/triangle.png","imgNWTK/square.png","imgNWTK/square.png","109","78","","",""
"5856","","","bandit-task-exp6","57","1352214","0.0-10.0-0.1","female","21","australia","71023","26087","imgNWTK/triangle.png","imgNWTK/square.png","imgNWTK/triangle.png","imgNWTK/square.png","noninfo","sub","1.92","","47","2","2","87","null","imgNWTK/triangle.png","imgNWTK/square.png","imgNWTK/square.png","90","90","","",""
"7537","","","bandit-task-exp6","58","1381563","0.0-10.0-0.2","female","21","australia","71023","26087","imgNWTK/triangle.png","imgNWTK/square.png","imgNWTK/triangle.png","imgNWTK/square.png","noninfo","sub","1.92","","48","2","1","0","null","imgNWTK/triangle.png","imgNWTK/square.png","imgNWTK/square.png","109","209","","",""
"4765","","","bandit-task-exp6","59","1408290","0.0-10.0-0.3","female","21","australia","71023","26087","imgNWTK/triangle.png","imgNWTK/square.png","imgNWTK/triangle.png","imgNWTK/square.png","noninfo","sub","1.92","","49","2","2","84","null","imgNWTK/triangle.png","imgNWTK/square.png","imgNWTK/square.png","89","89","","",""
"5893","","","bandit-task-exp6","60","1436136","0.0-10.0-0.4","female","21","australia","71023","26087","imgNWTK/triangle.png","imgNWTK/square.png","imgNWTK/triangle.png","imgNWTK/square.png","noninfo","sub","1.92","","50","1","2","0","null","imgNWTK/triangle.png","imgNWTK/square.png","imgNWTK/triangle.png","90","89","","",""
"7876","","","bandit-task-exp6","61","1466514","0.0-10.0-0.5","female","21","australia","71023","26087","imgNWTK/triangle.png","imgNWTK/square.png","imgNWTK/triangle.png","imgNWTK/square.png","noninfo","sub","1.92","","51","1","1","124","null","imgNWTK/square.png","imgNWTK/triangle.png","imgNWTK/triangle.png","89","90","","",""
"5833","","","bandit-task-exp6","62","1494121","0.0-10.0-0.6","female","21","australia","71023","26087","imgNWTK/triangle.png","imgNWTK/square.png","imgNWTK/triangle.png","imgNWTK/square.png","noninfo","sub","1.92","","52","1","2","0","null","imgNWTK/square.png","imgNWTK/triangle.png","imgNWTK/triangle.png","59","90","","",""
"6084","","","bandit-task-exp6","63","1522070","0.0-10.0-0.7","female","21","australia","71023","26087","imgNWTK/triangle.png","imgNWTK/square.png","imgNWTK/triangle.png","imgNWTK/square.png","noninfo","sub","1.92","","53","1","1","121","null","imgNWTK/square.png","imgNWTK/triangle.png","imgNWTK/triangle.png","89","109","","",""
"8552","","","bandit-task-exp6","64","1552534","0.0-10.0-0.8","female","21","australia","71023","26087","imgNWTK/triangle.png","imgNWTK/square.png","imgNWTK/triangle.png","imgNWTK/square.png","noninfo","sub","1.92","","54","1","1","123","null","imgNWTK/triangle.png","imgNWTK/square.png","imgNWTK/triangle.png","90","121","","",""
"4241","","","bandit-task-exp6","65","1578530","0.0-10.0-0.9","female","21","australia","71023","26087","imgNWTK/triangle.png","imgNWTK/square.png","imgNWTK/triangle.png","imgNWTK/square.png","noninfo","sub","1.92","","55","2","1","0","null","imgNWTK/triangle.png","imgNWTK/square.png","imgNWTK/square.png","121","89","","",""
"4697","","","bandit-task-exp6","66","1617767","0.0-10.0-0.10","female","21","australia","71023","26087","imgNWTK/triangle.png","imgNWTK/square.png","imgNWTK/triangle.png","imgNWTK/square.png","noninfo","sub","1.92","","56","2","1","0","null","imgNWTK/square.png","imgNWTK/triangle.png","imgNWTK/square.png","123","89","","",""
"7415","","","bandit-task-exp6","67","1648132","0.0-10.0-0.11","female","21","australia","71023","26087","imgNWTK/triangle.png","imgNWTK/square.png","imgNWTK/triangle.png","imgNWTK/square.png","noninfo","sub","1.92","","57","2","1","0","null","imgNWTK/triangle.png","imgNWTK/square.png","imgNWTK/square.png","121","89","","",""
"11942","","","bandit-task-exp6","68","1682688","0.0-10.0-0.12","female","21","australia","71023","26087","imgNWTK/triangle.png","imgNWTK/square.png","imgNWTK/triangle.png","imgNWTK/square.png","noninfo","sub","1.92","","58","1","2","0","null","imgNWTK/square.png","imgNWTK/triangle.png","imgNWTK/triangle.png","52","121","","",""
"5707","","","bandit-task-exp6","69","1710996","0.0-10.0-0.13","female","21","australia","71023","26087","imgNWTK/triangle.png","imgNWTK/square.png","imgNWTK/triangle.png","imgNWTK/square.png","noninfo","sub","1.92","","59","1","2","0","null","imgNWTK/square.png","imgNWTK/triangle.png","imgNWTK/triangle.png","20","89","","",""
"8653","","","bandit-task-exp6","70","1742459","0.0-10.0-0.14","female","21","australia","71023","26087","imgNWTK/triangle.png","imgNWTK/square.png","imgNWTK/triangle.png","imgNWTK/square.png","noninfo","sub","1.92","","60","1","2","0","null","imgNWTK/square.png","imgNWTK/triangle.png","imgNWTK/triangle.png","90","90","","",""
"2264","<p> Congratulations, you have finished the main part of the experiment. </p><p>Before you finish, we have a few short questions about the options and outcomes you saw in the task.</p>","0","html-button-response","71","1744723","0.0-11.0","female","21","australia","71023","26087","imgNWTK/triangle.png","imgNWTK/square.png","imgNWTK/triangle.png","imgNWTK/square.png","noninfo","sub","1.92","","","","","","","","","","","","","",""
"21299","<p><b>Now, imagine that you clicked on the below button for another 10 trials (this includes <i> BOTH WIN and NO-WIN trials</i>).</p> <img src= 'imgNWTK/triangle.png'></img></br></br> <p><b>Please type the reward (number of points) you would expect to receive on every trial.</br> Click start to begin.</p>","0","html-button-response","72","1766024","0.0-12.0","female","21","australia","71023","26087","imgNWTK/triangle.png","imgNWTK/square.png","imgNWTK/triangle.png","imgNWTK/square.png","noninfo","sub","1.92","","","","","","","","","","","","","",""
"5223.599999904633","","","survey-number","73","1771253","0.0-13.0-0.0","female","21","australia","71023","26087","imgNWTK/triangle.png","imgNWTK/square.png","imgNWTK/triangle.png","imgNWTK/square.png","noninfo","sub","1.92","{""undefined"":""0""}","","","","","","","","","","","","imgNWTK/triangle.png",""
"1220.6999998092651","","","survey-number","74","1772477","0.0-13.0-0.1","female","21","australia","71023","26087","imgNWTK/triangle.png","imgNWTK/square.png","imgNWTK/triangle.png","imgNWTK/square.png","noninfo","sub","1.92","{""undefined"":""0""}","","","","","","","","","","","","imgNWTK/triangle.png",""
"606.5999999046326","","","survey-number","75","1773087","0.0-13.0-0.2","female","21","australia","71023","26087","imgNWTK/triangle.png","imgNWTK/square.png","imgNWTK/triangle.png","imgNWTK/square.png","noninfo","sub","1.92","{""undefined"":""0""}","","","","","","","","","","","","imgNWTK/triangle.png",""
"665.6999998092651","","","survey-number","76","1773756","0.0-13.0-0.3","female","21","australia","71023","26087","imgNWTK/triangle.png","imgNWTK/square.png","imgNWTK/triangle.png","imgNWTK/square.png","noninfo","sub","1.92","{""undefined"":""0""}","","","","","","","","","","","","imgNWTK/triangle.png",""
"722.7999997138977","","","survey-number","77","1774482","0.0-13.0-0.4","female","21","australia","71023","26087","imgNWTK/triangle.png","imgNWTK/square.png","imgNWTK/triangle.png","imgNWTK/square.png","noninfo","sub","1.92","{""undefined"":""0""}","","","","","","","","","","","","imgNWTK/triangle.png",""
"1939.9000000953674","","","survey-number","78","1776425","0.0-13.0-0.5","female","21","australia","71023","26087","imgNWTK/triangle.png","imgNWTK/square.png","imgNWTK/triangle.png","imgNWTK/square.png","noninfo","sub","1.92","{""undefined"":""121""}","","","","","","","","","","","","imgNWTK/triangle.png",""
"769.4000000953674","","","survey-number","79","1777199","0.0-13.0-0.6","female","21","australia","71023","26087","imgNWTK/triangle.png","imgNWTK/square.png","imgNWTK/triangle.png","imgNWTK/square.png","noninfo","sub","1.92","{""undefined"":""0""}","","","","","","","","","","","","imgNWTK/triangle.png",""
"516.1999998092651","","","survey-number","80","1777718","0.0-13.0-0.7","female","21","australia","71023","26087","imgNWTK/triangle.png","imgNWTK/square.png","imgNWTK/triangle.png","imgNWTK/square.png","noninfo","sub","1.92","{""undefined"":""0""}","","","","","","","","","","","","imgNWTK/triangle.png",""
"587","","","survey-number","81","1778309","0.0-13.0-0.8","female","21","australia","71023","26087","imgNWTK/triangle.png","imgNWTK/square.png","imgNWTK/triangle.png","imgNWTK/square.png","noninfo","sub","1.92","{""undefined"":""0""}","","","","","","","","","","","","imgNWTK/triangle.png",""
"885.5999999046326","","","survey-number","82","1779198","0.0-13.0-0.9","female","21","australia","71023","26087","imgNWTK/triangle.png","imgNWTK/square.png","imgNWTK/triangle.png","imgNWTK/square.png","noninfo","sub","1.92","{""undefined"":""0""}","","","","","","","","","","","","imgNWTK/triangle.png",""
"8952","<p><b>Imagine that you clicked on the below button for another 10 trials (this includes <i> both WIN and NO-WIN trials</i>).</p> <img src= 'imgNWTK/square.png'></img></br></br> <p><b>Please type the reward (number of points) you would expect to receive on every trial.</br> Click start to begin.</p>","0","html-button-response","83","1788152","0.0-14.0","female","21","australia","71023","26087","imgNWTK/triangle.png","imgNWTK/square.png","imgNWTK/triangle.png","imgNWTK/square.png","noninfo","sub","1.92","","","","","","","","","","","","","",""
"848.8999996185303","","","survey-number","84","1789006","0.0-15.0-0.0","female","21","australia","71023","26087","imgNWTK/triangle.png","imgNWTK/square.png","imgNWTK/triangle.png","imgNWTK/square.png","noninfo","sub","1.92","{""undefined"":""0""}","","","","","","","","","","","","imgNWTK/square.png",""
"667.6999998092651","","","survey-number","85","1789677","0.0-15.0-0.1","female","21","australia","71023","26087","imgNWTK/triangle.png","imgNWTK/square.png","imgNWTK/triangle.png","imgNWTK/square.png","noninfo","sub","1.92","{""undefined"":""0""}","","","","","","","","","","","","imgNWTK/square.png",""
"865.2000002861023","","","survey-number","86","1790545","0.0-15.0-0.2","female","21","australia","71023","26087","imgNWTK/triangle.png","imgNWTK/square.png","imgNWTK/triangle.png","imgNWTK/square.png","noninfo","sub","1.92","{""undefined"":""0""}","","","","","","","","","","","","imgNWTK/square.png",""
"1132.8000001907349","","","survey-number","87","1791681","0.0-15.0-0.3","female","21","australia","71023","26087","imgNWTK/triangle.png","imgNWTK/square.png","imgNWTK/triangle.png","imgNWTK/square.png","noninfo","sub","1.92","{""undefined"":""89""}","","","","","","","","","","","","imgNWTK/square.png",""
"1049.0999999046326","","","survey-number","88","1792734","0.0-15.0-0.4","female","21","australia","71023","26087","imgNWTK/triangle.png","imgNWTK/square.png","imgNWTK/triangle.png","imgNWTK/square.png","noninfo","sub","1.92","{""undefined"":""0""}","","","","","","","","","","","","imgNWTK/square.png",""
"446.5","","","survey-number","89","1793183","0.0-15.0-0.5","female","21","australia","71023","26087","imgNWTK/triangle.png","imgNWTK/square.png","imgNWTK/triangle.png","imgNWTK/square.png","noninfo","sub","1.92","{""undefined"":""0""}","","","","","","","","","","","","imgNWTK/square.png",""
"510.80000019073486","","","survey-number","90","1793697","0.0-15.0-0.6","female","21","australia","71023","26087","imgNWTK/triangle.png","imgNWTK/square.png","imgNWTK/triangle.png","imgNWTK/square.png","noninfo","sub","1.92","{""undefined"":""0""}","","","","","","","","","","","","imgNWTK/square.png",""
"1463.2999997138977","","","survey-number","91","1795165","0.0-15.0-0.7","female","21","australia","71023","26087","imgNWTK/triangle.png","imgNWTK/square.png","imgNWTK/triangle.png","imgNWTK/square.png","noninfo","sub","1.92","{""undefined"":""89""}","","","","","","","","","","","","imgNWTK/square.png",""
"586.7999997138977","","","survey-number","92","1795754","0.0-15.0-0.8","female","21","australia","71023","26087","imgNWTK/triangle.png","imgNWTK/square.png","imgNWTK/triangle.png","imgNWTK/square.png","noninfo","sub","1.92","{""undefined"":""0""}","","","","","","","","","","","","imgNWTK/square.png",""
"583.5999999046326","","","survey-number","93","1796341","0.0-15.0-0.9","female","21","australia","71023","26087","imgNWTK/triangle.png","imgNWTK/square.png","imgNWTK/triangle.png","imgNWTK/square.png","noninfo","sub","1.92","{""undefined"":""0""}","","","","","","","","","","","","imgNWTK/square.png",""
"23065.799999713898","","","survey-number","94","1819413","0.0-16.0","female","21","australia","71023","26087","imgNWTK/triangle.png","imgNWTK/square.png","imgNWTK/triangle.png","imgNWTK/square.png","noninfo","sub","1.92","{""undefined"":""121""}","","","","","","","","","","","","","imgNWTK/triangle.png"
"2130.5","","","survey-number","95","1821547","0.0-17.0","female","21","australia","71023","26087","imgNWTK/triangle.png","imgNWTK/square.png","imgNWTK/triangle.png","imgNWTK/square.png","noninfo","sub","1.92","{""undefined"":""89""}","","","","","","","","","","","","","imgNWTK/square.png"
"20745","<p style=""text-align:left;"">Great! We are almost at the end of the study... (Please do not close the browser window yet.)</p><p> Your final points balance is 1923, which equals to a bonus payment of $1.92. Please collect your payment from Mathews Building Room 721 (Mon-Fri 9am-5pm); please email amy.x.li@unsw.edu.au at least 24 hours prior to collection so that this is ready for you.</p><p style=""text-align:left;"">To view the debriefing form, please click <a href=""./imgNWTK/debrief_3205.pdf"" target=""_blank"">here</a> to download a copy.</p><p style=""text-align:left;"">Then, <b>please click the below button</b> to confirm that you have received your debrief and to complete the study. Upon clicking ""Finish!"", your SONA credit will be automatically assigned.</p>","0","html-button-response","96","1842293","0.0-18.0","female","21","australia","71023","26087","imgNWTK/triangle.png","imgNWTK/square.png","imgNWTK/triangle.png","imgNWTK/square.png","noninfo","sub","1.92","","","","","","","","","","","","","",""
