"rt","stimulus","button_pressed","trial_type","trial_index","time_elapsed","internal_node_id","gender","age","language","PID","sona_id","subStim","optStim","stim1","stim2","infoCond","optimCond","bonus","responses","banditTrial","choice","cue","feedback","estimateData","leftOption","rightOption","choiceName","leftInput","rightInput","key_press","postQ","singleEst"
"2226","<p>Thank you for signing up to participate in SONA Study 465! <br> During this study, please focus on the experiment and refrain from activities such as:</p>- <b>Switching to other tabs on your browser (this will be monitored via the experiment)</br> - Using your mobile phone/cell phone</br> - Communicating with others</br></br></b><p>This way, you are helping to provide data that is useful for psychological research. We thank you for your cooperation!</p>","0","html-button-response","0","2229","0.0-0.0","female","18","australia","72523","25858","imgNWTK/triangle.png","imgNWTK/square.png","imgNWTK/triangle.png","imgNWTK/square.png","noninfo","sub","3.51","","","","","","","","","","","","","",""
"1176","<p>Welcome to the experiment!</p><p>You will now read some instructions about the task. Press the 'Next' button to continue. </p>","0","html-button-response","1","3408","0.0-1.0","female","18","australia","72523","25858","imgNWTK/triangle.png","imgNWTK/square.png","imgNWTK/triangle.png","imgNWTK/square.png","noninfo","sub","3.51","","","","","","","","","","","","","",""
"5097","<p> On each trial throughout the experiment you will choose between two options, </br>a <b>Black Square </b> and <b> Black Triangle </b>, as seen below.</p><div><div style= 'float: left; width: 300px; margin: 10px 10px;'><img src= 'imgNWTK/square.png'></img></div><div style= 'float: right; width: 300px; margin: 10px 10px;'><img src= 'imgNWTK/triangle.png'></img></div></div><br/><br/><br/><br/><br/><br/><br/><br/><br/><br/><br/><p>Each option results in winning points or receiving 0 points.</br>There is a 50% chance of either winning or receiving 0 points.</p><p>You won't receive the outcome until after a <b> 20 second delay</b>.</p>","0","html-button-response","2","8505","0.0-2.0-0.0","female","18","australia","72523","25858","imgNWTK/triangle.png","imgNWTK/square.png","imgNWTK/triangle.png","imgNWTK/square.png","noninfo","sub","3.51","","","","","","","","","","","","","",""
"4032","<img src= 'imgNWTK/NonInfoDiagram.png'></img><p>As seen above, whether you choose the square or triangle, you will receive a coloured circle after the choice. </p> <p>This circle will be on screen for 20 seconds until you win points or receive 0 points.</p><p>The coloured circle depends on which option you chose. </br> In the above example, choosing a triangle leads to a green circle and choosing the square leads to a red circle.</p>Please note: the circles in your task will be different to the above colours.</br></br>","0","html-button-response","3","12538","0.0-2.0-1.0","female","18","australia","72523","25858","imgNWTK/triangle.png","imgNWTK/square.png","imgNWTK/triangle.png","imgNWTK/square.png","noninfo","sub","3.51","","","","","","","","","","","","","",""
"13611","<img src= 'cues/winTrials_noInfo.png' width = '1200'></img><p>To reiterate, 50% of the outcomes of each option will be WIN TRIALS, and the other 50% will be NO-WIN TRIALS.","0","html-button-response","4","26151","0.0-2.0-2.0","female","18","australia","72523","25858","imgNWTK/triangle.png","imgNWTK/square.png","imgNWTK/triangle.png","imgNWTK/square.png","noninfo","sub","3.51","","","","","","","","","","","","","",""
"14158","<p> There will be <b>four blocks</b> in the experiment.</br>You will be given a short 15 second break between each block.</p><p><b>The points and the options will remain the same between the blocks.</b></p>The blocks are there just to give you a small break.</br></br></br></br><p>The points you earn in the task are also equal to <b> actual money</b>.</br> <b>1000 points is equal to $1 AUD</b></p><p>This is the rate you will be paid at the experiment's end.","0","html-button-response","5","40310","0.0-2.0-3.0","female","18","australia","72523","25858","imgNWTK/triangle.png","imgNWTK/square.png","imgNWTK/triangle.png","imgNWTK/square.png","noninfo","sub","3.51","","","","","","","","","","","","","",""
"10702","","","survey-multi-choice","6","51018","0.0-2.0-4.0","female","18","australia","72523","25858","imgNWTK/triangle.png","imgNWTK/square.png","imgNWTK/triangle.png","imgNWTK/square.png","noninfo","sub","3.51","{""Q0"":""10 Seconds"",""Q1"":""True"",""Q2"":""Differently""}","","","","","","","","","","","","",""
"1469","Unfortunately, at least one of your answers was incorrect.<p> ","0","html-button-response","7","52489","0.0-2.0-5.0-0.0","female","18","australia","72523","25858","imgNWTK/triangle.png","imgNWTK/square.png","imgNWTK/triangle.png","imgNWTK/square.png","noninfo","sub","3.51","","","","","","","","","","","","","",""
"20756","<p> On each trial throughout the experiment you will choose between two options, </br>a <b>Black Square </b> and <b> Black Triangle </b>, as seen below.</p><div><div style= 'float: left; width: 300px; margin: 10px 10px;'><img src= 'imgNWTK/square.png'></img></div><div style= 'float: right; width: 300px; margin: 10px 10px;'><img src= 'imgNWTK/triangle.png'></img></div></div><br/><br/><br/><br/><br/><br/><br/><br/><br/><br/><br/><p>Each option results in winning points or receiving 0 points.</br>There is a 50% chance of either winning or receiving 0 points.</p><p>You won't receive the outcome until after a <b> 20 second delay</b>.</p>","0","html-button-response","8","73247","0.0-2.1-0.1","female","18","australia","72523","25858","imgNWTK/triangle.png","imgNWTK/square.png","imgNWTK/triangle.png","imgNWTK/square.png","noninfo","sub","3.51","","","","","","","","","","","","","",""
"1811","<img src= 'imgNWTK/NonInfoDiagram.png'></img><p>As seen above, whether you choose the square or triangle, you will receive a coloured circle after the choice. </p> <p>This circle will be on screen for 20 seconds until you win points or receive 0 points.</p><p>The coloured circle depends on which option you chose. </br> In the above example, choosing a triangle leads to a green circle and choosing the square leads to a red circle.</p>Please note: the circles in your task will be different to the above colours.</br></br>","0","html-button-response","9","75058","0.0-2.1-1.1","female","18","australia","72523","25858","imgNWTK/triangle.png","imgNWTK/square.png","imgNWTK/triangle.png","imgNWTK/square.png","noninfo","sub","3.51","","","","","","","","","","","","","",""
"3571","<img src= 'cues/winTrials_noInfo.png' width = '1200'></img><p>To reiterate, 50% of the outcomes of each option will be WIN TRIALS, and the other 50% will be NO-WIN TRIALS.","0","html-button-response","10","78630","0.0-2.1-2.1","female","18","australia","72523","25858","imgNWTK/triangle.png","imgNWTK/square.png","imgNWTK/triangle.png","imgNWTK/square.png","noninfo","sub","3.51","","","","","","","","","","","","","",""
"1147","<p> There will be <b>four blocks</b> in the experiment.</br>You will be given a short 15 second break between each block.</p><p><b>The points and the options will remain the same between the blocks.</b></p>The blocks are there just to give you a small break.</br></br></br></br><p>The points you earn in the task are also equal to <b> actual money</b>.</br> <b>1000 points is equal to $1 AUD</b></p><p>This is the rate you will be paid at the experiment's end.","0","html-button-response","11","79778","0.0-2.1-3.1","female","18","australia","72523","25858","imgNWTK/triangle.png","imgNWTK/square.png","imgNWTK/triangle.png","imgNWTK/square.png","noninfo","sub","3.51","","","","","","","","","","","","","",""
"12831","","","survey-multi-choice","12","92615","0.0-2.1-4.1","female","18","australia","72523","25858","imgNWTK/triangle.png","imgNWTK/square.png","imgNWTK/triangle.png","imgNWTK/square.png","noninfo","sub","3.51","{""Q0"":""20 Seconds"",""Q1"":""True"",""Q2"":""Differently""}","","","","","","","","","","","","",""
"1153","Unfortunately, at least one of your answers was incorrect.<p> ","0","html-button-response","13","93771","0.0-2.1-5.1-0.1","female","18","australia","72523","25858","imgNWTK/triangle.png","imgNWTK/square.png","imgNWTK/triangle.png","imgNWTK/square.png","noninfo","sub","3.51","","","","","","","","","","","","","",""
"1001","<p> On each trial throughout the experiment you will choose between two options, </br>a <b>Black Square </b> and <b> Black Triangle </b>, as seen below.</p><div><div style= 'float: left; width: 300px; margin: 10px 10px;'><img src= 'imgNWTK/square.png'></img></div><div style= 'float: right; width: 300px; margin: 10px 10px;'><img src= 'imgNWTK/triangle.png'></img></div></div><br/><br/><br/><br/><br/><br/><br/><br/><br/><br/><br/><p>Each option results in winning points or receiving 0 points.</br>There is a 50% chance of either winning or receiving 0 points.</p><p>You won't receive the outcome until after a <b> 20 second delay</b>.</p>","0","html-button-response","14","94773","0.0-2.2-0.2","female","18","australia","72523","25858","imgNWTK/triangle.png","imgNWTK/square.png","imgNWTK/triangle.png","imgNWTK/square.png","noninfo","sub","3.51","","","","","","","","","","","","","",""
"1849","<img src= 'imgNWTK/NonInfoDiagram.png'></img><p>As seen above, whether you choose the square or triangle, you will receive a coloured circle after the choice. </p> <p>This circle will be on screen for 20 seconds until you win points or receive 0 points.</p><p>The coloured circle depends on which option you chose. </br> In the above example, choosing a triangle leads to a green circle and choosing the square leads to a red circle.</p>Please note: the circles in your task will be different to the above colours.</br></br>","0","html-button-response","15","96623","0.0-2.2-1.2","female","18","australia","72523","25858","imgNWTK/triangle.png","imgNWTK/square.png","imgNWTK/triangle.png","imgNWTK/square.png","noninfo","sub","3.51","","","","","","","","","","","","","",""
"1347","<img src= 'cues/winTrials_noInfo.png' width = '1200'></img><p>To reiterate, 50% of the outcomes of each option will be WIN TRIALS, and the other 50% will be NO-WIN TRIALS.","0","html-button-response","16","97972","0.0-2.2-2.2","female","18","australia","72523","25858","imgNWTK/triangle.png","imgNWTK/square.png","imgNWTK/triangle.png","imgNWTK/square.png","noninfo","sub","3.51","","","","","","","","","","","","","",""
"1118","<p> There will be <b>four blocks</b> in the experiment.</br>You will be given a short 15 second break between each block.</p><p><b>The points and the options will remain the same between the blocks.</b></p>The blocks are there just to give you a small break.</br></br></br></br><p>The points you earn in the task are also equal to <b> actual money</b>.</br> <b>1000 points is equal to $1 AUD</b></p><p>This is the rate you will be paid at the experiment's end.","0","html-button-response","17","99090","0.0-2.2-3.2","female","18","australia","72523","25858","imgNWTK/triangle.png","imgNWTK/square.png","imgNWTK/triangle.png","imgNWTK/square.png","noninfo","sub","3.51","","","","","","","","","","","","","",""
"6434","","","survey-multi-choice","18","105529","0.0-2.2-4.2","female","18","australia","72523","25858","imgNWTK/triangle.png","imgNWTK/square.png","imgNWTK/triangle.png","imgNWTK/square.png","noninfo","sub","3.51","{""Q0"":""20 Seconds"",""Q1"":""True"",""Q2"":""Equally""}","","","","","","","","","","","","",""
"1807","<p> Well done, all your answers were correct! <br> The experiment is about to start now. <br/> Click start to continue, or email your researcher <b>(amy.x.li@unsw.edu.au)</b> if you have any questions before starting.","0","html-button-response","19","107338","0.0-3.0","female","18","australia","72523","25858","imgNWTK/triangle.png","imgNWTK/square.png","imgNWTK/triangle.png","imgNWTK/square.png","noninfo","sub","3.51","","","","","","","","","","","","","",""
"1182","","","bandit-task-exp6","20","132874","0.0-4.0-0.0","female","18","australia","72523","25858","imgNWTK/triangle.png","imgNWTK/square.png","imgNWTK/triangle.png","imgNWTK/square.png","noninfo","sub","3.51","","1","1","1","129","null","imgNWTK/triangle.png","imgNWTK/square.png","imgNWTK/triangle.png","NaN","NaN","","",""
"2000","","","bandit-task-exp6","21","158815","0.0-4.0-0.1","female","18","australia","72523","25858","imgNWTK/triangle.png","imgNWTK/square.png","imgNWTK/triangle.png","imgNWTK/square.png","noninfo","sub","3.51","","2","2","2","76","null","imgNWTK/triangle.png","imgNWTK/square.png","imgNWTK/square.png","NaN","NaN","","",""
"1305","","","bandit-task-exp6","22","192454","0.0-4.0-0.2","female","18","australia","72523","25858","imgNWTK/triangle.png","imgNWTK/square.png","imgNWTK/triangle.png","imgNWTK/square.png","noninfo","sub","3.51","","3","2","2","72","null","imgNWTK/triangle.png","imgNWTK/square.png","imgNWTK/square.png","NaN","NaN","","",""
"1306","","","bandit-task-exp6","23","219688","0.0-4.0-0.3","female","18","australia","72523","25858","imgNWTK/triangle.png","imgNWTK/square.png","imgNWTK/triangle.png","imgNWTK/square.png","noninfo","sub","3.51","","4","2","2","88","null","imgNWTK/square.png","imgNWTK/triangle.png","imgNWTK/square.png","NaN","NaN","","",""
"1015","","","bandit-task-exp6","24","265866","0.0-4.0-0.4","female","18","australia","72523","25858","imgNWTK/triangle.png","imgNWTK/square.png","imgNWTK/triangle.png","imgNWTK/square.png","noninfo","sub","3.51","","5","1","1","111","null","imgNWTK/triangle.png","imgNWTK/square.png","imgNWTK/triangle.png","NaN","NaN","","",""
"4349","","","bandit-task-exp6","25","300489","0.0-4.0-0.5","female","18","australia","72523","25858","imgNWTK/triangle.png","imgNWTK/square.png","imgNWTK/triangle.png","imgNWTK/square.png","noninfo","sub","3.51","","6","2","2","85","null","imgNWTK/square.png","imgNWTK/triangle.png","imgNWTK/square.png","NaN","NaN","","",""
"991","","","bandit-task-exp6","26","330693","0.0-4.0-0.6","female","18","australia","72523","25858","imgNWTK/triangle.png","imgNWTK/square.png","imgNWTK/triangle.png","imgNWTK/square.png","noninfo","sub","3.51","","7","2","1","0","null","imgNWTK/square.png","imgNWTK/triangle.png","imgNWTK/square.png","NaN","NaN","","",""
"36207","","","bandit-task-exp6","27","408026","0.0-4.0-0.7","female","18","australia","72523","25858","imgNWTK/triangle.png","imgNWTK/square.png","imgNWTK/triangle.png","imgNWTK/square.png","noninfo","sub","3.51","","8","2","2","82","null","imgNWTK/triangle.png","imgNWTK/square.png","imgNWTK/square.png","NaN","NaN","","",""
"4984","","","bandit-task-exp6","28","435858","0.0-4.0-0.8","female","18","australia","72523","25858","imgNWTK/triangle.png","imgNWTK/square.png","imgNWTK/triangle.png","imgNWTK/square.png","noninfo","sub","3.51","","9","2","1","0","null","imgNWTK/square.png","imgNWTK/triangle.png","imgNWTK/square.png","NaN","NaN","","",""
"763","","","bandit-task-exp6","29","460598","0.0-4.0-0.9","female","18","australia","72523","25858","imgNWTK/triangle.png","imgNWTK/square.png","imgNWTK/triangle.png","imgNWTK/square.png","noninfo","sub","3.51","","10","2","2","88","null","imgNWTK/square.png","imgNWTK/triangle.png","imgNWTK/square.png","NaN","NaN","","",""
"886","","","bandit-task-exp6","30","491585","0.0-4.0-0.10","female","18","australia","72523","25858","imgNWTK/triangle.png","imgNWTK/square.png","imgNWTK/triangle.png","imgNWTK/square.png","noninfo","sub","3.51","","11","1","1","123","null","imgNWTK/square.png","imgNWTK/triangle.png","imgNWTK/triangle.png","NaN","NaN","","",""
"7309","","","bandit-task-exp6","31","522162","0.0-4.0-0.11","female","18","australia","72523","25858","imgNWTK/triangle.png","imgNWTK/square.png","imgNWTK/triangle.png","imgNWTK/square.png","noninfo","sub","3.51","","12","2","2","82","null","imgNWTK/triangle.png","imgNWTK/square.png","imgNWTK/square.png","NaN","NaN","","",""
"7148","","","bandit-task-exp6","32","558468","0.0-4.0-0.12","female","18","australia","72523","25858","imgNWTK/triangle.png","imgNWTK/square.png","imgNWTK/triangle.png","imgNWTK/square.png","noninfo","sub","3.51","","13","2","1","0","null","imgNWTK/square.png","imgNWTK/triangle.png","imgNWTK/square.png","NaN","NaN","","",""
"1047","","","bandit-task-exp6","33","584188","0.0-4.0-0.13","female","18","australia","72523","25858","imgNWTK/triangle.png","imgNWTK/square.png","imgNWTK/triangle.png","imgNWTK/square.png","noninfo","sub","3.51","","14","2","1","0","null","imgNWTK/triangle.png","imgNWTK/square.png","imgNWTK/square.png","NaN","NaN","","",""
"1257","","","bandit-task-exp6","34","618659","0.0-4.0-0.14","female","18","australia","72523","25858","imgNWTK/triangle.png","imgNWTK/square.png","imgNWTK/triangle.png","imgNWTK/square.png","noninfo","sub","3.51","","15","1","1","114","null","imgNWTK/square.png","imgNWTK/triangle.png","imgNWTK/triangle.png","NaN","NaN","","",""
"null","<p><b> Congratulations, you have finished this block. </b> </p><p>Please take a short break before moving onto the next block.</p><p>The next block will start after a 15 second break.</p><b>Remember, the point rewards are the same between blocks","","html-keyboard-response","35","633666","0.0-5.0","female","18","australia","72523","25858","imgNWTK/triangle.png","imgNWTK/square.png","imgNWTK/triangle.png","imgNWTK/square.png","noninfo","sub","3.51","","","","","","","","","","","","null","",""
"3261","","","bandit-task-exp6","36","661091","0.0-6.0-0.0","female","18","australia","72523","25858","imgNWTK/triangle.png","imgNWTK/square.png","imgNWTK/triangle.png","imgNWTK/square.png","noninfo","sub","3.51","","16","2","1","0","null","imgNWTK/triangle.png","imgNWTK/square.png","imgNWTK/square.png","NaN","NaN","","",""
"12267","","","bandit-task-exp6","37","712071","0.0-6.0-0.1","female","18","australia","72523","25858","imgNWTK/triangle.png","imgNWTK/square.png","imgNWTK/triangle.png","imgNWTK/square.png","noninfo","sub","3.51","","17","2","2","89","null","imgNWTK/triangle.png","imgNWTK/square.png","imgNWTK/square.png","NaN","NaN","","",""
"19969","","","bandit-task-exp6","38","755835","0.0-6.0-0.2","female","18","australia","72523","25858","imgNWTK/triangle.png","imgNWTK/square.png","imgNWTK/triangle.png","imgNWTK/square.png","noninfo","sub","3.51","","18","1","1","123","null","imgNWTK/square.png","imgNWTK/triangle.png","imgNWTK/triangle.png","NaN","NaN","","",""
"1081","","","bandit-task-exp6","39","785410","0.0-6.0-0.3","female","18","australia","72523","25858","imgNWTK/triangle.png","imgNWTK/square.png","imgNWTK/triangle.png","imgNWTK/square.png","noninfo","sub","3.51","","19","2","1","0","null","imgNWTK/triangle.png","imgNWTK/square.png","imgNWTK/square.png","NaN","NaN","","",""
"2001","","","bandit-task-exp6","40","822231","0.0-6.0-0.4","female","18","australia","72523","25858","imgNWTK/triangle.png","imgNWTK/square.png","imgNWTK/triangle.png","imgNWTK/square.png","noninfo","sub","3.51","","20","2","2","85","null","imgNWTK/square.png","imgNWTK/triangle.png","imgNWTK/square.png","NaN","NaN","","",""
"2268","","","bandit-task-exp6","41","847705","0.0-6.0-0.5","female","18","australia","72523","25858","imgNWTK/triangle.png","imgNWTK/square.png","imgNWTK/triangle.png","imgNWTK/square.png","noninfo","sub","3.51","","21","2","1","0","null","imgNWTK/triangle.png","imgNWTK/square.png","imgNWTK/square.png","NaN","NaN","","",""
"2122","","","bandit-task-exp6","42","881966","0.0-6.0-0.6","female","18","australia","72523","25858","imgNWTK/triangle.png","imgNWTK/square.png","imgNWTK/triangle.png","imgNWTK/square.png","noninfo","sub","3.51","","22","1","1","116","null","imgNWTK/triangle.png","imgNWTK/square.png","imgNWTK/triangle.png","NaN","NaN","","",""
"984","","","bandit-task-exp6","43","915364","0.0-6.0-0.7","female","18","australia","72523","25858","imgNWTK/triangle.png","imgNWTK/square.png","imgNWTK/triangle.png","imgNWTK/square.png","noninfo","sub","3.51","","23","2","2","87","null","imgNWTK/square.png","imgNWTK/triangle.png","imgNWTK/square.png","NaN","NaN","","",""
"3800","","","bandit-task-exp6","44","977383","0.0-6.0-0.8","female","18","australia","72523","25858","imgNWTK/triangle.png","imgNWTK/square.png","imgNWTK/triangle.png","imgNWTK/square.png","noninfo","sub","3.51","","24","2","1","0","null","imgNWTK/triangle.png","imgNWTK/square.png","imgNWTK/square.png","NaN","NaN","","",""
"789","","","bandit-task-exp6","45","1000897","0.0-6.0-0.9","female","18","australia","72523","25858","imgNWTK/triangle.png","imgNWTK/square.png","imgNWTK/triangle.png","imgNWTK/square.png","noninfo","sub","3.51","","25","1","1","125","null","imgNWTK/triangle.png","imgNWTK/square.png","imgNWTK/triangle.png","NaN","NaN","","",""
"1039","","","bandit-task-exp6","46","1029182","0.0-6.0-0.10","female","18","australia","72523","25858","imgNWTK/triangle.png","imgNWTK/square.png","imgNWTK/triangle.png","imgNWTK/square.png","noninfo","sub","3.51","","26","1","2","0","null","imgNWTK/square.png","imgNWTK/triangle.png","imgNWTK/triangle.png","NaN","NaN","","",""
"1120","","","bandit-task-exp6","47","1052586","0.0-6.0-0.11","female","18","australia","72523","25858","imgNWTK/triangle.png","imgNWTK/square.png","imgNWTK/triangle.png","imgNWTK/square.png","noninfo","sub","3.51","","27","1","1","111","null","imgNWTK/square.png","imgNWTK/triangle.png","imgNWTK/triangle.png","NaN","NaN","","",""
"3399","","","bandit-task-exp6","48","1078315","0.0-6.0-0.12","female","18","australia","72523","25858","imgNWTK/triangle.png","imgNWTK/square.png","imgNWTK/triangle.png","imgNWTK/square.png","noninfo","sub","3.51","","28","2","1","0","null","imgNWTK/square.png","imgNWTK/triangle.png","imgNWTK/square.png","NaN","NaN","","",""
"1081","","","bandit-task-exp6","49","1111321","0.0-6.0-0.13","female","18","australia","72523","25858","imgNWTK/triangle.png","imgNWTK/square.png","imgNWTK/triangle.png","imgNWTK/square.png","noninfo","sub","3.51","","29","1","2","0","null","imgNWTK/triangle.png","imgNWTK/square.png","imgNWTK/triangle.png","NaN","NaN","","",""
"1493","","","bandit-task-exp6","50","1143076","0.0-6.0-0.14","female","18","australia","72523","25858","imgNWTK/triangle.png","imgNWTK/square.png","imgNWTK/triangle.png","imgNWTK/square.png","noninfo","sub","3.51","","30","2","1","0","null","imgNWTK/square.png","imgNWTK/triangle.png","imgNWTK/square.png","NaN","NaN","","",""
"null","<p><b> Congratulations, you have finished this block. </b> </p><p>Please take a short break before moving onto the next block.</p><p>The next block will start after a 15 second break.</p><b>Remember, the point rewards are the same between blocks","","html-keyboard-response","51","1158077","0.0-7.0","female","18","australia","72523","25858","imgNWTK/triangle.png","imgNWTK/square.png","imgNWTK/triangle.png","imgNWTK/square.png","noninfo","sub","3.51","","","","","","","","","","","","null","",""
"1327","","","bandit-task-exp6","52","1196599","0.0-8.0-0.0","female","18","australia","72523","25858","imgNWTK/triangle.png","imgNWTK/square.png","imgNWTK/triangle.png","imgNWTK/square.png","noninfo","sub","3.51","","31","2","2","82","null","imgNWTK/square.png","imgNWTK/triangle.png","imgNWTK/square.png","NaN","NaN","","",""
"741","","","bandit-task-exp6","53","1224595","0.0-8.0-0.1","female","18","australia","72523","25858","imgNWTK/triangle.png","imgNWTK/square.png","imgNWTK/triangle.png","imgNWTK/square.png","noninfo","sub","3.51","","32","1","1","117","null","imgNWTK/triangle.png","imgNWTK/square.png","imgNWTK/triangle.png","NaN","NaN","","",""
"1709","","","bandit-task-exp6","54","1265592","0.0-8.0-0.2","female","18","australia","72523","25858","imgNWTK/triangle.png","imgNWTK/square.png","imgNWTK/triangle.png","imgNWTK/square.png","noninfo","sub","3.51","","33","1","2","0","null","imgNWTK/square.png","imgNWTK/triangle.png","imgNWTK/triangle.png","NaN","NaN","","",""
"1097","","","bandit-task-exp6","55","1290128","0.0-8.0-0.3","female","18","australia","72523","25858","imgNWTK/triangle.png","imgNWTK/square.png","imgNWTK/triangle.png","imgNWTK/square.png","noninfo","sub","3.51","","34","2","1","0","null","imgNWTK/triangle.png","imgNWTK/square.png","imgNWTK/square.png","NaN","NaN","","",""
"1032","","","bandit-task-exp6","56","1330626","0.0-8.0-0.4","female","18","australia","72523","25858","imgNWTK/triangle.png","imgNWTK/square.png","imgNWTK/triangle.png","imgNWTK/square.png","noninfo","sub","3.51","","35","2","1","0","null","imgNWTK/square.png","imgNWTK/triangle.png","imgNWTK/square.png","NaN","NaN","","",""
"620","","","bandit-task-exp6","57","1355635","0.0-8.0-0.5","female","18","australia","72523","25858","imgNWTK/triangle.png","imgNWTK/square.png","imgNWTK/triangle.png","imgNWTK/square.png","noninfo","sub","3.51","","36","2","2","89","null","imgNWTK/triangle.png","imgNWTK/square.png","imgNWTK/square.png","NaN","NaN","","",""
"813","","","bandit-task-exp6","58","1381376","0.0-8.0-0.6","female","18","australia","72523","25858","imgNWTK/triangle.png","imgNWTK/square.png","imgNWTK/triangle.png","imgNWTK/square.png","noninfo","sub","3.51","","37","1","1","113","null","imgNWTK/square.png","imgNWTK/triangle.png","imgNWTK/triangle.png","NaN","NaN","","",""
"1629","","","bandit-task-exp6","59","1407465","0.0-8.0-0.7","female","18","australia","72523","25858","imgNWTK/triangle.png","imgNWTK/square.png","imgNWTK/triangle.png","imgNWTK/square.png","noninfo","sub","3.51","","38","2","2","83","null","imgNWTK/triangle.png","imgNWTK/square.png","imgNWTK/square.png","NaN","NaN","","",""
"1534","","","bandit-task-exp6","60","1433203","0.0-8.0-0.8","female","18","australia","72523","25858","imgNWTK/triangle.png","imgNWTK/square.png","imgNWTK/triangle.png","imgNWTK/square.png","noninfo","sub","3.51","","39","1","2","0","null","imgNWTK/triangle.png","imgNWTK/square.png","imgNWTK/triangle.png","NaN","NaN","","",""
"1476","","","bandit-task-exp6","61","1484026","0.0-8.0-0.9","female","18","australia","72523","25858","imgNWTK/triangle.png","imgNWTK/square.png","imgNWTK/triangle.png","imgNWTK/square.png","noninfo","sub","3.51","","40","1","2","0","null","imgNWTK/square.png","imgNWTK/triangle.png","imgNWTK/triangle.png","NaN","NaN","","",""
"650","","","bandit-task-exp6","62","1524488","0.0-8.0-0.10","female","18","australia","72523","25858","imgNWTK/triangle.png","imgNWTK/square.png","imgNWTK/triangle.png","imgNWTK/square.png","noninfo","sub","3.51","","41","1","2","0","null","imgNWTK/triangle.png","imgNWTK/square.png","imgNWTK/triangle.png","NaN","NaN","","",""
"684","","","bandit-task-exp6","63","1548287","0.0-8.0-0.11","female","18","australia","72523","25858","imgNWTK/triangle.png","imgNWTK/square.png","imgNWTK/triangle.png","imgNWTK/square.png","noninfo","sub","3.51","","42","1","2","0","null","imgNWTK/square.png","imgNWTK/triangle.png","imgNWTK/triangle.png","NaN","NaN","","",""
"1010","","","bandit-task-exp6","64","1571600","0.0-8.0-0.12","female","18","australia","72523","25858","imgNWTK/triangle.png","imgNWTK/square.png","imgNWTK/triangle.png","imgNWTK/square.png","noninfo","sub","3.51","","43","1","1","119","null","imgNWTK/triangle.png","imgNWTK/square.png","imgNWTK/triangle.png","NaN","NaN","","",""
"1016","","","bandit-task-exp6","65","1598981","0.0-8.0-0.13","female","18","australia","72523","25858","imgNWTK/triangle.png","imgNWTK/square.png","imgNWTK/triangle.png","imgNWTK/square.png","noninfo","sub","3.51","","44","1","1","125","null","imgNWTK/square.png","imgNWTK/triangle.png","imgNWTK/triangle.png","NaN","NaN","","",""
"764","","","bandit-task-exp6","66","1653425","0.0-8.0-0.14","female","18","australia","72523","25858","imgNWTK/triangle.png","imgNWTK/square.png","imgNWTK/triangle.png","imgNWTK/square.png","noninfo","sub","3.51","","45","2","1","0","null","imgNWTK/triangle.png","imgNWTK/square.png","imgNWTK/square.png","NaN","NaN","","",""
"null","<p><b> Congratulations, you have finished this block. </b> </p><p>Please take a short break before moving onto the next block.</p><p>The next block will start after a 15 second break.</p><b>Remember, the point rewards are the same between blocks","","html-keyboard-response","67","1668427","0.0-9.0","female","18","australia","72523","25858","imgNWTK/triangle.png","imgNWTK/square.png","imgNWTK/triangle.png","imgNWTK/square.png","noninfo","sub","3.51","","","","","","","","","","","","null","",""
"59388","","","bandit-task-exp6","68","1755502","0.0-10.0-0.0","female","18","australia","72523","25858","imgNWTK/triangle.png","imgNWTK/square.png","imgNWTK/triangle.png","imgNWTK/square.png","noninfo","sub","3.51","","46","1","2","0","null","imgNWTK/square.png","imgNWTK/triangle.png","imgNWTK/triangle.png","80","177","","",""
"8343","","","bandit-task-exp6","69","1798053","0.0-10.0-0.1","female","18","australia","72523","25858","imgNWTK/triangle.png","imgNWTK/square.png","imgNWTK/triangle.png","imgNWTK/square.png","noninfo","sub","3.51","","47","1","2","0","null","imgNWTK/triangle.png","imgNWTK/square.png","imgNWTK/triangle.png","80","0","","",""
"6984","","","bandit-task-exp6","70","1834704","0.0-10.0-0.2","female","18","australia","72523","25858","imgNWTK/triangle.png","imgNWTK/square.png","imgNWTK/triangle.png","imgNWTK/square.png","noninfo","sub","3.51","","48","2","2","80","null","imgNWTK/square.png","imgNWTK/triangle.png","imgNWTK/square.png","70","80","","",""
"10525","","","bandit-task-exp6","71","1867676","0.0-10.0-0.3","female","18","australia","72523","25858","imgNWTK/triangle.png","imgNWTK/square.png","imgNWTK/triangle.png","imgNWTK/square.png","noninfo","sub","3.51","","49","1","1","129","null","imgNWTK/square.png","imgNWTK/triangle.png","imgNWTK/triangle.png","80","177","","",""
"32804","","","bandit-task-exp6","72","1923344","0.0-10.0-0.4","female","18","australia","72523","25858","imgNWTK/triangle.png","imgNWTK/square.png","imgNWTK/triangle.png","imgNWTK/square.png","noninfo","sub","3.51","","50","1","1","110","null","imgNWTK/square.png","imgNWTK/triangle.png","imgNWTK/triangle.png","80","160","","",""
"8481","","","bandit-task-exp6","73","1954914","0.0-10.0-0.5","female","18","australia","72523","25858","imgNWTK/triangle.png","imgNWTK/square.png","imgNWTK/triangle.png","imgNWTK/square.png","noninfo","sub","3.51","","51","2","2","79","null","imgNWTK/triangle.png","imgNWTK/square.png","imgNWTK/square.png","90","100","","",""
"7116","","","bandit-task-exp6","74","1989067","0.0-10.0-0.6","female","18","australia","72523","25858","imgNWTK/triangle.png","imgNWTK/square.png","imgNWTK/triangle.png","imgNWTK/square.png","noninfo","sub","3.51","","52","2","2","79","null","imgNWTK/triangle.png","imgNWTK/square.png","imgNWTK/square.png","80","100","","",""
"6259","","","bandit-task-exp6","75","2017989","0.0-10.0-0.7","female","18","australia","72523","25858","imgNWTK/triangle.png","imgNWTK/square.png","imgNWTK/triangle.png","imgNWTK/square.png","noninfo","sub","3.51","","53","2","2","73","null","imgNWTK/square.png","imgNWTK/triangle.png","imgNWTK/square.png","100","79","","",""
"9233","","","bandit-task-exp6","76","2073748","0.0-10.0-0.8","female","18","australia","72523","25858","imgNWTK/triangle.png","imgNWTK/square.png","imgNWTK/triangle.png","imgNWTK/square.png","noninfo","sub","3.51","","54","1","2","0","null","imgNWTK/triangle.png","imgNWTK/square.png","imgNWTK/triangle.png","70","32","","",""
"6275","","","bandit-task-exp6","77","2116829","0.0-10.0-0.9","female","18","australia","72523","25858","imgNWTK/triangle.png","imgNWTK/square.png","imgNWTK/triangle.png","imgNWTK/square.png","noninfo","sub","3.51","","55","1","1","122","null","imgNWTK/square.png","imgNWTK/triangle.png","imgNWTK/triangle.png","90","100","","",""
"5346","","","bandit-task-exp6","78","2153220","0.0-10.0-0.10","female","18","australia","72523","25858","imgNWTK/triangle.png","imgNWTK/square.png","imgNWTK/triangle.png","imgNWTK/square.png","noninfo","sub","3.51","","56","1","1","124","null","imgNWTK/square.png","imgNWTK/triangle.png","imgNWTK/triangle.png","79","122","","",""
"21286","","","bandit-task-exp6","79","2199975","0.0-10.0-0.11","female","18","australia","72523","25858","imgNWTK/triangle.png","imgNWTK/square.png","imgNWTK/triangle.png","imgNWTK/square.png","noninfo","sub","3.51","","57","2","2","88","null","imgNWTK/triangle.png","imgNWTK/square.png","imgNWTK/square.png","20","1200","","",""
"7427","","","bandit-task-exp6","80","2231244","0.0-10.0-0.12","female","18","australia","72523","25858","imgNWTK/triangle.png","imgNWTK/square.png","imgNWTK/triangle.png","imgNWTK/square.png","noninfo","sub","3.51","","58","1","1","111","null","imgNWTK/triangle.png","imgNWTK/square.png","imgNWTK/triangle.png","77","27","","",""
"5152","","","bandit-task-exp6","81","2396103","0.0-10.0-0.13","female","18","australia","72523","25858","imgNWTK/triangle.png","imgNWTK/square.png","imgNWTK/triangle.png","imgNWTK/square.png","noninfo","sub","3.51","","59","2","1","0","null","imgNWTK/triangle.png","imgNWTK/square.png","imgNWTK/square.png","3782","23","","",""
"9015","","","bandit-task-exp6","82","2438478","0.0-10.0-0.14","female","18","australia","72523","25858","imgNWTK/triangle.png","imgNWTK/square.png","imgNWTK/triangle.png","imgNWTK/square.png","noninfo","sub","3.51","","60","2","1","0","null","imgNWTK/square.png","imgNWTK/triangle.png","imgNWTK/square.png","89","300","","",""
"10328","<p> Congratulations, you have finished the main part of the experiment. </p><p>Before you finish, we have a few short questions about the options and outcomes you saw in the task.</p>","0","html-button-response","83","2448809","0.0-11.0","female","18","australia","72523","25858","imgNWTK/triangle.png","imgNWTK/square.png","imgNWTK/triangle.png","imgNWTK/square.png","noninfo","sub","3.51","","","","","","","","","","","","","",""
"8568","<p><b>Now, imagine that you clicked on the below button for another 10 trials (this includes <i> BOTH WIN and NO-WIN trials</i>).</p> <img src= 'imgNWTK/triangle.png'></img></br></br> <p><b>Please type the reward (number of points) you would expect to receive on every trial.</br> Click start to begin.</p>","0","html-button-response","84","2457378","0.0-12.0","female","18","australia","72523","25858","imgNWTK/triangle.png","imgNWTK/square.png","imgNWTK/triangle.png","imgNWTK/square.png","noninfo","sub","3.51","","","","","","","","","","","","","",""
"8541.200000047684","","","survey-number","85","2465947","0.0-13.0-0.0","female","18","australia","72523","25858","imgNWTK/triangle.png","imgNWTK/square.png","imgNWTK/triangle.png","imgNWTK/square.png","noninfo","sub","3.51","{""undefined"":""177""}","","","","","","","","","","","","imgNWTK/triangle.png",""
"3038.2999999523163","","","survey-number","86","2468988","0.0-13.0-0.1","female","18","australia","72523","25858","imgNWTK/triangle.png","imgNWTK/square.png","imgNWTK/triangle.png","imgNWTK/square.png","noninfo","sub","3.51","{""undefined"":""0""}","","","","","","","","","","","","imgNWTK/triangle.png",""
"1685.3000000715256","","","survey-number","87","2470678","0.0-13.0-0.2","female","18","australia","72523","25858","imgNWTK/triangle.png","imgNWTK/square.png","imgNWTK/triangle.png","imgNWTK/square.png","noninfo","sub","3.51","{""undefined"":""80""}","","","","","","","","","","","","imgNWTK/triangle.png",""
"1125.1999999284744","","","survey-number","88","2471808","0.0-13.0-0.3","female","18","australia","72523","25858","imgNWTK/triangle.png","imgNWTK/square.png","imgNWTK/triangle.png","imgNWTK/square.png","noninfo","sub","3.51","{""undefined"":""77""}","","","","","","","","","","","","imgNWTK/triangle.png",""
"1004.1000000238419","","","survey-number","89","2472815","0.0-13.0-0.4","female","18","australia","72523","25858","imgNWTK/triangle.png","imgNWTK/square.png","imgNWTK/triangle.png","imgNWTK/square.png","noninfo","sub","3.51","{""undefined"":""100""}","","","","","","","","","","","","imgNWTK/triangle.png",""
"1637.6000000238419","","","survey-number","90","2474455","0.0-13.0-0.5","female","18","australia","72523","25858","imgNWTK/triangle.png","imgNWTK/square.png","imgNWTK/triangle.png","imgNWTK/square.png","noninfo","sub","3.51","{""undefined"":""89""}","","","","","","","","","","","","imgNWTK/triangle.png",""
"1304.6999999284744","","","survey-number","91","2475762","0.0-13.0-0.6","female","18","australia","72523","25858","imgNWTK/triangle.png","imgNWTK/square.png","imgNWTK/triangle.png","imgNWTK/square.png","noninfo","sub","3.51","{""undefined"":""77""}","","","","","","","","","","","","imgNWTK/triangle.png",""
"1160.5999999046326","","","survey-number","92","2476926","0.0-13.0-0.7","female","18","australia","72523","25858","imgNWTK/triangle.png","imgNWTK/square.png","imgNWTK/triangle.png","imgNWTK/square.png","noninfo","sub","3.51","{""undefined"":""100""}","","","","","","","","","","","","imgNWTK/triangle.png",""
"1228.7999999523163","","","survey-number","93","2478157","0.0-13.0-0.8","female","18","australia","72523","25858","imgNWTK/triangle.png","imgNWTK/square.png","imgNWTK/triangle.png","imgNWTK/square.png","noninfo","sub","3.51","{""undefined"":""99""}","","","","","","","","","","","","imgNWTK/triangle.png",""
"925","","","survey-number","94","2479085","0.0-13.0-0.9","female","18","australia","72523","25858","imgNWTK/triangle.png","imgNWTK/square.png","imgNWTK/triangle.png","imgNWTK/square.png","noninfo","sub","3.51","{""undefined"":""100""}","","","","","","","","","","","","imgNWTK/triangle.png",""
"4528","<p><b>Imagine that you clicked on the below button for another 10 trials (this includes <i> both WIN and NO-WIN trials</i>).</p> <img src= 'imgNWTK/square.png'></img></br></br> <p><b>Please type the reward (number of points) you would expect to receive on every trial.</br> Click start to begin.</p>","0","html-button-response","95","2483614","0.0-14.0","female","18","australia","72523","25858","imgNWTK/triangle.png","imgNWTK/square.png","imgNWTK/triangle.png","imgNWTK/square.png","noninfo","sub","3.51","","","","","","","","","","","","","",""
"1166.5","","","survey-number","96","2484784","0.0-15.0-0.0","female","18","australia","72523","25858","imgNWTK/triangle.png","imgNWTK/square.png","imgNWTK/triangle.png","imgNWTK/square.png","noninfo","sub","3.51","{""undefined"":""88""}","","","","","","","","","","","","imgNWTK/square.png",""
"1686.3999999761581","","","survey-number","97","2486473","0.0-15.0-0.1","female","18","australia","72523","25858","imgNWTK/triangle.png","imgNWTK/square.png","imgNWTK/triangle.png","imgNWTK/square.png","noninfo","sub","3.51","{""undefined"":""100""}","","","","","","","","","","","","imgNWTK/square.png",""
"1283","","","survey-number","98","2487759","0.0-15.0-0.2","female","18","australia","72523","25858","imgNWTK/triangle.png","imgNWTK/square.png","imgNWTK/triangle.png","imgNWTK/square.png","noninfo","sub","3.51","{""undefined"":""87""}","","","","","","","","","","","","imgNWTK/square.png",""
"1185.2999999523163","","","survey-number","99","2488947","0.0-15.0-0.3","female","18","australia","72523","25858","imgNWTK/triangle.png","imgNWTK/square.png","imgNWTK/triangle.png","imgNWTK/square.png","noninfo","sub","3.51","{""undefined"":""88""}","","","","","","","","","","","","imgNWTK/square.png",""
"1570","","","survey-number","100","2490520","0.0-15.0-0.4","female","18","australia","72523","25858","imgNWTK/triangle.png","imgNWTK/square.png","imgNWTK/triangle.png","imgNWTK/square.png","noninfo","sub","3.51","{""undefined"":""89""}","","","","","","","","","","","","imgNWTK/square.png",""
"1153.6000000238419","","","survey-number","101","2491676","0.0-15.0-0.5","female","18","australia","72523","25858","imgNWTK/triangle.png","imgNWTK/square.png","imgNWTK/triangle.png","imgNWTK/square.png","noninfo","sub","3.51","{""undefined"":""100""}","","","","","","","","","","","","imgNWTK/square.png",""
"1713.2000000476837","","","survey-number","102","2493392","0.0-15.0-0.6","female","18","australia","72523","25858","imgNWTK/triangle.png","imgNWTK/square.png","imgNWTK/triangle.png","imgNWTK/square.png","noninfo","sub","3.51","{""undefined"":""122""}","","","","","","","","","","","","imgNWTK/square.png",""
"1218","","","survey-number","103","2494612","0.0-15.0-0.7","female","18","australia","72523","25858","imgNWTK/triangle.png","imgNWTK/square.png","imgNWTK/triangle.png","imgNWTK/square.png","noninfo","sub","3.51","{""undefined"":""122""}","","","","","","","","","","","","imgNWTK/square.png",""
"996","","","survey-number","104","2495611","0.0-15.0-0.8","female","18","australia","72523","25858","imgNWTK/triangle.png","imgNWTK/square.png","imgNWTK/triangle.png","imgNWTK/square.png","noninfo","sub","3.51","{""undefined"":""122""}","","","","","","","","","","","","imgNWTK/square.png",""
"1089.3999999761581","","","survey-number","105","2496704","0.0-15.0-0.9","female","18","australia","72523","25858","imgNWTK/triangle.png","imgNWTK/square.png","imgNWTK/triangle.png","imgNWTK/square.png","noninfo","sub","3.51","{""undefined"":""0""}","","","","","","","","","","","","imgNWTK/square.png",""
"15249.399999976158","","","survey-number","106","2511963","0.0-16.0","female","18","australia","72523","25858","imgNWTK/triangle.png","imgNWTK/square.png","imgNWTK/triangle.png","imgNWTK/square.png","noninfo","sub","3.51","{""undefined"":""5""}","","","","","","","","","","","","","imgNWTK/square.png"
"1442.5999999046326","","","survey-number","107","2513410","0.0-17.0","female","18","australia","72523","25858","imgNWTK/triangle.png","imgNWTK/square.png","imgNWTK/triangle.png","imgNWTK/square.png","noninfo","sub","3.51","{""undefined"":""44""}","","","","","","","","","","","","","imgNWTK/triangle.png"
"50893","<p style=""text-align:left;"">Great! We are almost at the end of the study... (Please do not close the browser window yet.)</p><p> Your final points balance is 3509, which equals to a bonus payment of $3.51. Please collect your payment from Mathews Building Room 721 (Mon-Fri 9am-5pm); please email amy.x.li@unsw.edu.au at least 24 hours prior to collection so that this is ready for you.</p><p style=""text-align:left;"">To view the debriefing form, please click <a href=""./imgNWTK/debrief_3205.pdf"" target=""_blank"">here</a> to download a copy.</p><p style=""text-align:left;"">Then, <b>please click the below button</b> to confirm that you have received your debrief and to complete the study. Upon clicking ""Finish!"", your SONA credit will be automatically assigned.</p>","0","html-button-response","108","2564304","0.0-18.0","female","18","australia","72523","25858","imgNWTK/triangle.png","imgNWTK/square.png","imgNWTK/triangle.png","imgNWTK/square.png","noninfo","sub","3.51","","","","","","","","","","","","","",""
