"rt","stimulus","button_pressed","trial_type","trial_index","time_elapsed","internal_node_id","gender","age","language","PID","sona_id","subStim","optStim","stim1","stim2","infoCond","optimCond","bonus","responses","banditTrial","choice","cue","feedback","estimateData","leftOption","rightOption","choiceName","leftInput","rightInput","key_press","postQ","singleEst"
"13117","<p>Thank you for signing up to participate in SONA Study 476! <br> During this study, please focus on the experiment and refrain from activities such as:</p>- <b>Switching to other tabs on your browser (this will be monitored via the experiment)</br> - Using your mobile phone/cell phone</br> - Communicating with others</br></br></b><p>This way, you are helping to provide data that is useful for psychological research. We thank you for your cooperation!</p>","0","html-button-response","0","13119","0.0-0.0","male","20","Australia","61475","26284","imgNWTK/FindOutNow.jpg","imgNWTK/KeepItSecret.jpg","imgNWTK/KeepItSecret.jpg","imgNWTK/FindOutNow.jpg","info","optim","2.97","","","","","","","","","","","","","",""
"2396","<p>Welcome to the experiment!</p><p>You will now read some instructions about the task. Press the 'Next' button to continue. </p>","0","html-button-response","1","15515","0.0-1.0","male","20","Australia","61475","26284","imgNWTK/FindOutNow.jpg","imgNWTK/KeepItSecret.jpg","imgNWTK/KeepItSecret.jpg","imgNWTK/FindOutNow.jpg","info","optim","2.97","","","","","","","","","","","","","",""
"32287","<p> On each trial throughout the experiment you will choose between the options </br><b> Find Out Now </b> and <b> Keep It Secret </b>, as shown below.</p><div><div style= 'float: left; width: 300px; margin: 10px 10px;'><img src= 'imgNWTK/KeepItSecret.jpg'></img></div><div style= 'float: right; width: 300px; margin: 10px 10px;'><img src= 'imgNWTK/FindOutNow.jpg'></img></div></div><br/><br/><br/><br/><br/><br/><br/><br/><br/><br/><br/><p>Each option results in winning points or receiving 0 points.</br>There is a 50% chance of either winning or receiving 0 points.</p><p>You won't receive the outcome until after a <b> 20 second delay</b>. However, selecting the Find Out Now option will allow you to find out about the outcome early, whereas the Keep It Secret option will not. </p>","0","html-button-response","2","47803","0.0-2.0-0.0","male","20","Australia","61475","26284","imgNWTK/FindOutNow.jpg","imgNWTK/KeepItSecret.jpg","imgNWTK/KeepItSecret.jpg","imgNWTK/FindOutNow.jpg","info","optim","2.97","","","","","","","","","","","","","",""
"43728","<img src= 'cues/Experiment6.png'></img><p>As seen above, when choosing the <b>'Find Out Now'</b> option, you will receive either a happy face or sad face.</br>The happy face means you will win points after the delay, whereas the sad face means you will receive 0 points.</br></p><p> When choosing the <b> 'Keep it Secret' </b> option you will receive a confused face.</br> This face appears regardless of whether you are going to win points or not. </p>In short, choosing 'Find Out Now' allows you to find out the outcome before you experience it (after the delay).</br></br>","0","html-button-response","3","91532","0.0-2.0-1.0","male","20","Australia","61475","26284","imgNWTK/FindOutNow.jpg","imgNWTK/KeepItSecret.jpg","imgNWTK/KeepItSecret.jpg","imgNWTK/FindOutNow.jpg","info","optim","2.97","","","","","","","","","","","","","",""
"12220","<img src= 'cues/winTrials_info.png' width = '1200'></img><p>To reiterate, 50% of the outcomes of each option will be WIN TRIALS, and the other 50% will be NO-WIN TRIALS.","0","html-button-response","4","103753","0.0-2.0-2.0","male","20","Australia","61475","26284","imgNWTK/FindOutNow.jpg","imgNWTK/KeepItSecret.jpg","imgNWTK/KeepItSecret.jpg","imgNWTK/FindOutNow.jpg","info","optim","2.97","","","","","","","","","","","","","",""
"30715","<p> There will be <b>four blocks</b> in the experiment.</br>You will be given a short 15 second break between each block.</p><p><b>The points and the options will remain the same between the blocks.</b></p>The blocks are there just to give you a small break.</br></br><p>The points you earn in the task are also equal to <b> actual money</b>.</br> <b>1000 points is equal to $1.</b></p><p>This is the rate you will be paid at the experiment's end.","0","html-button-response","5","134470","0.0-2.0-3.0","male","20","Australia","61475","26284","imgNWTK/FindOutNow.jpg","imgNWTK/KeepItSecret.jpg","imgNWTK/KeepItSecret.jpg","imgNWTK/FindOutNow.jpg","info","optim","2.97","","","","","","","","","","","","","",""
"20937","","","survey-multi-choice","6","155411","0.0-2.0-4.0","male","20","Australia","61475","26284","imgNWTK/FindOutNow.jpg","imgNWTK/KeepItSecret.jpg","imgNWTK/KeepItSecret.jpg","imgNWTK/FindOutNow.jpg","info","optim","2.97","{""Q0"":""20 Seconds"",""Q1"":""True"",""Q2"":""Equally"",""Q3"":""True""}","","","","","","","","","","","","",""
"3899","<p> Well done, all your answers were correct! <br> The experiment is about to start now. <br/> Click start to continue, or email your researcher <b>(amy.x.li@unsw.edu.au)</b> if you have any questions before starting.","0","html-button-response","7","159313","0.0-3.0","male","20","Australia","61475","26284","imgNWTK/FindOutNow.jpg","imgNWTK/KeepItSecret.jpg","imgNWTK/KeepItSecret.jpg","imgNWTK/FindOutNow.jpg","info","optim","2.97","","","","","","","","","","","","","",""
"2653","","","bandit-task-exp6","8","164943","0.0-4.0-0.0","male","20","Australia","61475","26284","imgNWTK/FindOutNow.jpg","imgNWTK/KeepItSecret.jpg","imgNWTK/KeepItSecret.jpg","imgNWTK/FindOutNow.jpg","info","optim","2.97","","1","2","1","0","null","imgNWTK/KeepItSecret.jpg","imgNWTK/FindOutNow.jpg","imgNWTK/FindOutNow.jpg","NaN","NaN","","",""
"1555","","","bandit-task-exp6","9","170633","0.0-4.0-0.1","male","20","Australia","61475","26284","imgNWTK/FindOutNow.jpg","imgNWTK/KeepItSecret.jpg","imgNWTK/KeepItSecret.jpg","imgNWTK/FindOutNow.jpg","info","optim","2.97","","2","1","2","0","null","imgNWTK/FindOutNow.jpg","imgNWTK/KeepItSecret.jpg","imgNWTK/KeepItSecret.jpg","NaN","NaN","","",""
"32656","","","bandit-task-exp6","10","206730","0.0-4.0-0.2","male","20","Australia","61475","26284","imgNWTK/FindOutNow.jpg","imgNWTK/KeepItSecret.jpg","imgNWTK/KeepItSecret.jpg","imgNWTK/FindOutNow.jpg","info","optim","2.97","","3","1","2","0","null","imgNWTK/KeepItSecret.jpg","imgNWTK/FindOutNow.jpg","imgNWTK/KeepItSecret.jpg","NaN","NaN","","",""
"2149","","","bandit-task-exp6","11","212207","0.0-4.0-0.3","male","20","Australia","61475","26284","imgNWTK/FindOutNow.jpg","imgNWTK/KeepItSecret.jpg","imgNWTK/KeepItSecret.jpg","imgNWTK/FindOutNow.jpg","info","optim","2.97","","4","2","2","117","null","imgNWTK/KeepItSecret.jpg","imgNWTK/FindOutNow.jpg","imgNWTK/FindOutNow.jpg","NaN","NaN","","",""
"2402","","","bandit-task-exp6","12","217437","0.0-4.0-0.4","male","20","Australia","61475","26284","imgNWTK/FindOutNow.jpg","imgNWTK/KeepItSecret.jpg","imgNWTK/KeepItSecret.jpg","imgNWTK/FindOutNow.jpg","info","optim","2.97","","5","1","2","0","null","imgNWTK/FindOutNow.jpg","imgNWTK/KeepItSecret.jpg","imgNWTK/KeepItSecret.jpg","NaN","NaN","","",""
"2753","","","bandit-task-exp6","13","223660","0.0-4.0-0.5","male","20","Australia","61475","26284","imgNWTK/FindOutNow.jpg","imgNWTK/KeepItSecret.jpg","imgNWTK/KeepItSecret.jpg","imgNWTK/FindOutNow.jpg","info","optim","2.97","","6","1","2","0","null","imgNWTK/FindOutNow.jpg","imgNWTK/KeepItSecret.jpg","imgNWTK/KeepItSecret.jpg","NaN","NaN","","",""
"2443","","","bandit-task-exp6","14","229089","0.0-4.0-0.6","male","20","Australia","61475","26284","imgNWTK/FindOutNow.jpg","imgNWTK/KeepItSecret.jpg","imgNWTK/KeepItSecret.jpg","imgNWTK/FindOutNow.jpg","info","optim","2.97","","7","2","2","116","null","imgNWTK/FindOutNow.jpg","imgNWTK/KeepItSecret.jpg","imgNWTK/FindOutNow.jpg","NaN","NaN","","",""
"1530","","","bandit-task-exp6","15","233529","0.0-4.0-0.7","male","20","Australia","61475","26284","imgNWTK/FindOutNow.jpg","imgNWTK/KeepItSecret.jpg","imgNWTK/KeepItSecret.jpg","imgNWTK/FindOutNow.jpg","info","optim","2.97","","8","2","1","0","null","imgNWTK/KeepItSecret.jpg","imgNWTK/FindOutNow.jpg","imgNWTK/FindOutNow.jpg","NaN","NaN","","",""
"1186","","","bandit-task-exp6","16","237461","0.0-4.0-0.8","male","20","Australia","61475","26284","imgNWTK/FindOutNow.jpg","imgNWTK/KeepItSecret.jpg","imgNWTK/KeepItSecret.jpg","imgNWTK/FindOutNow.jpg","info","optim","2.97","","9","2","2","124","null","imgNWTK/KeepItSecret.jpg","imgNWTK/FindOutNow.jpg","imgNWTK/FindOutNow.jpg","NaN","NaN","","",""
"942","","","bandit-task-exp6","17","241340","0.0-4.0-0.9","male","20","Australia","61475","26284","imgNWTK/FindOutNow.jpg","imgNWTK/KeepItSecret.jpg","imgNWTK/KeepItSecret.jpg","imgNWTK/FindOutNow.jpg","info","optim","2.97","","10","2","2","126","null","imgNWTK/KeepItSecret.jpg","imgNWTK/FindOutNow.jpg","imgNWTK/FindOutNow.jpg","NaN","NaN","","",""
"851","","","bandit-task-exp6","18","244738","0.0-4.0-0.10","male","20","Australia","61475","26284","imgNWTK/FindOutNow.jpg","imgNWTK/KeepItSecret.jpg","imgNWTK/KeepItSecret.jpg","imgNWTK/FindOutNow.jpg","info","optim","2.97","","11","2","1","0","null","imgNWTK/KeepItSecret.jpg","imgNWTK/FindOutNow.jpg","imgNWTK/FindOutNow.jpg","NaN","NaN","","",""
"1366","","","bandit-task-exp6","19","249632","0.0-4.0-0.11","male","20","Australia","61475","26284","imgNWTK/FindOutNow.jpg","imgNWTK/KeepItSecret.jpg","imgNWTK/KeepItSecret.jpg","imgNWTK/FindOutNow.jpg","info","optim","2.97","","12","1","2","0","null","imgNWTK/KeepItSecret.jpg","imgNWTK/FindOutNow.jpg","imgNWTK/KeepItSecret.jpg","NaN","NaN","","",""
"26760","","","bandit-task-exp6","20","282264","0.0-4.0-0.12","male","20","Australia","61475","26284","imgNWTK/FindOutNow.jpg","imgNWTK/KeepItSecret.jpg","imgNWTK/KeepItSecret.jpg","imgNWTK/FindOutNow.jpg","info","optim","2.97","","13","1","1","78","null","imgNWTK/KeepItSecret.jpg","imgNWTK/FindOutNow.jpg","imgNWTK/KeepItSecret.jpg","NaN","NaN","","",""
"1706","","","bandit-task-exp6","21","286775","0.0-4.0-0.13","male","20","Australia","61475","26284","imgNWTK/FindOutNow.jpg","imgNWTK/KeepItSecret.jpg","imgNWTK/KeepItSecret.jpg","imgNWTK/FindOutNow.jpg","info","optim","2.97","","14","2","1","0","null","imgNWTK/KeepItSecret.jpg","imgNWTK/FindOutNow.jpg","imgNWTK/FindOutNow.jpg","NaN","NaN","","",""
"578","","","bandit-task-exp6","22","289780","0.0-4.0-0.14","male","20","Australia","61475","26284","imgNWTK/FindOutNow.jpg","imgNWTK/KeepItSecret.jpg","imgNWTK/KeepItSecret.jpg","imgNWTK/FindOutNow.jpg","info","optim","2.97","","15","2","2","125","null","imgNWTK/KeepItSecret.jpg","imgNWTK/FindOutNow.jpg","imgNWTK/FindOutNow.jpg","NaN","NaN","","",""
"null","<p><b> Congratulations, you have finished this block. </b> </p><p>Please take a short break before moving onto the next block.</p><p>The next block will start after a 15 second break.</p><b>Remember, the point rewards are the same between blocks","","html-keyboard-response","23","304794","0.0-5.0","male","20","Australia","61475","26284","imgNWTK/FindOutNow.jpg","imgNWTK/KeepItSecret.jpg","imgNWTK/KeepItSecret.jpg","imgNWTK/FindOutNow.jpg","info","optim","2.97","","","","","","","","","","","","null","",""
"2211","","","bandit-task-exp6","24","310226","0.0-6.0-0.0","male","20","Australia","61475","26284","imgNWTK/FindOutNow.jpg","imgNWTK/KeepItSecret.jpg","imgNWTK/KeepItSecret.jpg","imgNWTK/FindOutNow.jpg","info","optim","2.97","","16","1","1","73","null","imgNWTK/FindOutNow.jpg","imgNWTK/KeepItSecret.jpg","imgNWTK/KeepItSecret.jpg","NaN","NaN","","",""
"2077","","","bandit-task-exp6","25","315179","0.0-6.0-0.1","male","20","Australia","61475","26284","imgNWTK/FindOutNow.jpg","imgNWTK/KeepItSecret.jpg","imgNWTK/KeepItSecret.jpg","imgNWTK/FindOutNow.jpg","info","optim","2.97","","17","2","1","0","null","imgNWTK/FindOutNow.jpg","imgNWTK/KeepItSecret.jpg","imgNWTK/FindOutNow.jpg","NaN","NaN","","",""
"1600","","","bandit-task-exp6","26","319174","0.0-6.0-0.2","male","20","Australia","61475","26284","imgNWTK/FindOutNow.jpg","imgNWTK/KeepItSecret.jpg","imgNWTK/KeepItSecret.jpg","imgNWTK/FindOutNow.jpg","info","optim","2.97","","18","2","1","0","null","imgNWTK/FindOutNow.jpg","imgNWTK/KeepItSecret.jpg","imgNWTK/FindOutNow.jpg","NaN","NaN","","",""
"1232","","","bandit-task-exp6","27","322826","0.0-6.0-0.3","male","20","Australia","61475","26284","imgNWTK/FindOutNow.jpg","imgNWTK/KeepItSecret.jpg","imgNWTK/KeepItSecret.jpg","imgNWTK/FindOutNow.jpg","info","optim","2.97","","19","2","1","0","null","imgNWTK/FindOutNow.jpg","imgNWTK/KeepItSecret.jpg","imgNWTK/FindOutNow.jpg","NaN","NaN","","",""
"2572","","","bandit-task-exp6","28","327875","0.0-6.0-0.4","male","20","Australia","61475","26284","imgNWTK/FindOutNow.jpg","imgNWTK/KeepItSecret.jpg","imgNWTK/KeepItSecret.jpg","imgNWTK/FindOutNow.jpg","info","optim","2.97","","20","2","1","0","null","imgNWTK/FindOutNow.jpg","imgNWTK/KeepItSecret.jpg","imgNWTK/FindOutNow.jpg","NaN","NaN","","",""
"767","","","bandit-task-exp6","29","331034","0.0-6.0-0.5","male","20","Australia","61475","26284","imgNWTK/FindOutNow.jpg","imgNWTK/KeepItSecret.jpg","imgNWTK/KeepItSecret.jpg","imgNWTK/FindOutNow.jpg","info","optim","2.97","","21","2","2","130","null","imgNWTK/KeepItSecret.jpg","imgNWTK/FindOutNow.jpg","imgNWTK/FindOutNow.jpg","NaN","NaN","","",""
"951","","","bandit-task-exp6","30","334666","0.0-6.0-0.6","male","20","Australia","61475","26284","imgNWTK/FindOutNow.jpg","imgNWTK/KeepItSecret.jpg","imgNWTK/KeepItSecret.jpg","imgNWTK/FindOutNow.jpg","info","optim","2.97","","22","1","1","78","null","imgNWTK/KeepItSecret.jpg","imgNWTK/FindOutNow.jpg","imgNWTK/KeepItSecret.jpg","NaN","NaN","","",""
"710","","","bandit-task-exp6","31","338173","0.0-6.0-0.7","male","20","Australia","61475","26284","imgNWTK/FindOutNow.jpg","imgNWTK/KeepItSecret.jpg","imgNWTK/KeepItSecret.jpg","imgNWTK/FindOutNow.jpg","info","optim","2.97","","23","1","2","0","null","imgNWTK/KeepItSecret.jpg","imgNWTK/FindOutNow.jpg","imgNWTK/KeepItSecret.jpg","NaN","NaN","","",""
"768","","","bandit-task-exp6","32","341560","0.0-6.0-0.8","male","20","Australia","61475","26284","imgNWTK/FindOutNow.jpg","imgNWTK/KeepItSecret.jpg","imgNWTK/KeepItSecret.jpg","imgNWTK/FindOutNow.jpg","info","optim","2.97","","24","2","2","129","null","imgNWTK/KeepItSecret.jpg","imgNWTK/FindOutNow.jpg","imgNWTK/FindOutNow.jpg","NaN","NaN","","",""
"2805","","","bandit-task-exp6","33","346948","0.0-6.0-0.9","male","20","Australia","61475","26284","imgNWTK/FindOutNow.jpg","imgNWTK/KeepItSecret.jpg","imgNWTK/KeepItSecret.jpg","imgNWTK/FindOutNow.jpg","info","optim","2.97","","25","2","1","0","null","imgNWTK/FindOutNow.jpg","imgNWTK/KeepItSecret.jpg","imgNWTK/FindOutNow.jpg","NaN","NaN","","",""
"1253","","","bandit-task-exp6","34","351020","0.0-6.0-0.10","male","20","Australia","61475","26284","imgNWTK/FindOutNow.jpg","imgNWTK/KeepItSecret.jpg","imgNWTK/KeepItSecret.jpg","imgNWTK/FindOutNow.jpg","info","optim","2.97","","26","2","2","114","null","imgNWTK/FindOutNow.jpg","imgNWTK/KeepItSecret.jpg","imgNWTK/FindOutNow.jpg","NaN","NaN","","",""
"1278","","","bandit-task-exp6","35","355301","0.0-6.0-0.11","male","20","Australia","61475","26284","imgNWTK/FindOutNow.jpg","imgNWTK/KeepItSecret.jpg","imgNWTK/KeepItSecret.jpg","imgNWTK/FindOutNow.jpg","info","optim","2.97","","27","1","1","77","null","imgNWTK/KeepItSecret.jpg","imgNWTK/FindOutNow.jpg","imgNWTK/KeepItSecret.jpg","NaN","NaN","","",""
"1490","","","bandit-task-exp6","36","359612","0.0-6.0-0.12","male","20","Australia","61475","26284","imgNWTK/FindOutNow.jpg","imgNWTK/KeepItSecret.jpg","imgNWTK/KeepItSecret.jpg","imgNWTK/FindOutNow.jpg","info","optim","2.97","","28","2","1","0","null","imgNWTK/KeepItSecret.jpg","imgNWTK/FindOutNow.jpg","imgNWTK/FindOutNow.jpg","NaN","NaN","","",""
"763","","","bandit-task-exp6","37","362817","0.0-6.0-0.13","male","20","Australia","61475","26284","imgNWTK/FindOutNow.jpg","imgNWTK/KeepItSecret.jpg","imgNWTK/KeepItSecret.jpg","imgNWTK/FindOutNow.jpg","info","optim","2.97","","29","2","2","125","null","imgNWTK/KeepItSecret.jpg","imgNWTK/FindOutNow.jpg","imgNWTK/FindOutNow.jpg","NaN","NaN","","",""
"1601","","","bandit-task-exp6","38","367038","0.0-6.0-0.14","male","20","Australia","61475","26284","imgNWTK/FindOutNow.jpg","imgNWTK/KeepItSecret.jpg","imgNWTK/KeepItSecret.jpg","imgNWTK/FindOutNow.jpg","info","optim","2.97","","30","2","1","0","null","imgNWTK/FindOutNow.jpg","imgNWTK/KeepItSecret.jpg","imgNWTK/FindOutNow.jpg","NaN","NaN","","",""
"null","<p><b> Congratulations, you have finished this block. </b> </p><p>Please take a short break before moving onto the next block.</p><p>The next block will start after a 15 second break.</p><b>Remember, the point rewards are the same between blocks","","html-keyboard-response","39","382044","0.0-7.0","male","20","Australia","61475","26284","imgNWTK/FindOutNow.jpg","imgNWTK/KeepItSecret.jpg","imgNWTK/KeepItSecret.jpg","imgNWTK/FindOutNow.jpg","info","optim","2.97","","","","","","","","","","","","null","",""
"1595","","","bandit-task-exp6","40","386567","0.0-8.0-0.0","male","20","Australia","61475","26284","imgNWTK/FindOutNow.jpg","imgNWTK/KeepItSecret.jpg","imgNWTK/KeepItSecret.jpg","imgNWTK/FindOutNow.jpg","info","optim","2.97","","31","1","1","72","null","imgNWTK/FindOutNow.jpg","imgNWTK/KeepItSecret.jpg","imgNWTK/KeepItSecret.jpg","NaN","NaN","","",""
"730","","","bandit-task-exp6","41","390023","0.0-8.0-0.1","male","20","Australia","61475","26284","imgNWTK/FindOutNow.jpg","imgNWTK/KeepItSecret.jpg","imgNWTK/KeepItSecret.jpg","imgNWTK/FindOutNow.jpg","info","optim","2.97","","32","2","2","110","null","imgNWTK/FindOutNow.jpg","imgNWTK/KeepItSecret.jpg","imgNWTK/FindOutNow.jpg","NaN","NaN","","",""
"768","","","bandit-task-exp6","42","393583","0.0-8.0-0.2","male","20","Australia","61475","26284","imgNWTK/FindOutNow.jpg","imgNWTK/KeepItSecret.jpg","imgNWTK/KeepItSecret.jpg","imgNWTK/FindOutNow.jpg","info","optim","2.97","","33","2","1","0","null","imgNWTK/FindOutNow.jpg","imgNWTK/KeepItSecret.jpg","imgNWTK/FindOutNow.jpg","NaN","NaN","","",""
"658","","","bandit-task-exp6","43","396848","0.0-8.0-0.3","male","20","Australia","61475","26284","imgNWTK/FindOutNow.jpg","imgNWTK/KeepItSecret.jpg","imgNWTK/KeepItSecret.jpg","imgNWTK/FindOutNow.jpg","info","optim","2.97","","34","2","2","119","null","imgNWTK/KeepItSecret.jpg","imgNWTK/FindOutNow.jpg","imgNWTK/FindOutNow.jpg","NaN","NaN","","",""
"1077","","","bandit-task-exp6","44","400507","0.0-8.0-0.4","male","20","Australia","61475","26284","imgNWTK/FindOutNow.jpg","imgNWTK/KeepItSecret.jpg","imgNWTK/KeepItSecret.jpg","imgNWTK/FindOutNow.jpg","info","optim","2.97","","35","2","2","126","null","imgNWTK/KeepItSecret.jpg","imgNWTK/FindOutNow.jpg","imgNWTK/FindOutNow.jpg","NaN","NaN","","",""
"940","","","bandit-task-exp6","45","404086","0.0-8.0-0.5","male","20","Australia","61475","26284","imgNWTK/FindOutNow.jpg","imgNWTK/KeepItSecret.jpg","imgNWTK/KeepItSecret.jpg","imgNWTK/FindOutNow.jpg","info","optim","2.97","","36","1","1","76","null","imgNWTK/KeepItSecret.jpg","imgNWTK/FindOutNow.jpg","imgNWTK/KeepItSecret.jpg","NaN","NaN","","",""
"1042","","","bandit-task-exp6","46","408093","0.0-8.0-0.6","male","20","Australia","61475","26284","imgNWTK/FindOutNow.jpg","imgNWTK/KeepItSecret.jpg","imgNWTK/KeepItSecret.jpg","imgNWTK/FindOutNow.jpg","info","optim","2.97","","37","2","2","127","null","imgNWTK/FindOutNow.jpg","imgNWTK/KeepItSecret.jpg","imgNWTK/FindOutNow.jpg","NaN","NaN","","",""
"1083","","","bandit-task-exp6","47","412213","0.0-8.0-0.7","male","20","Australia","61475","26284","imgNWTK/FindOutNow.jpg","imgNWTK/KeepItSecret.jpg","imgNWTK/KeepItSecret.jpg","imgNWTK/FindOutNow.jpg","info","optim","2.97","","38","2","2","113","null","imgNWTK/KeepItSecret.jpg","imgNWTK/FindOutNow.jpg","imgNWTK/FindOutNow.jpg","NaN","NaN","","",""
"827","","","bandit-task-exp6","48","415803","0.0-8.0-0.8","male","20","Australia","61475","26284","imgNWTK/FindOutNow.jpg","imgNWTK/KeepItSecret.jpg","imgNWTK/KeepItSecret.jpg","imgNWTK/FindOutNow.jpg","info","optim","2.97","","39","1","1","88","null","imgNWTK/KeepItSecret.jpg","imgNWTK/FindOutNow.jpg","imgNWTK/KeepItSecret.jpg","NaN","NaN","","",""
"1212","","","bandit-task-exp6","49","419401","0.0-8.0-0.9","male","20","Australia","61475","26284","imgNWTK/FindOutNow.jpg","imgNWTK/KeepItSecret.jpg","imgNWTK/KeepItSecret.jpg","imgNWTK/FindOutNow.jpg","info","optim","2.97","","40","1","1","81","null","imgNWTK/FindOutNow.jpg","imgNWTK/KeepItSecret.jpg","imgNWTK/KeepItSecret.jpg","NaN","NaN","","",""
"2348","","","bandit-task-exp6","50","424511","0.0-8.0-0.10","male","20","Australia","61475","26284","imgNWTK/FindOutNow.jpg","imgNWTK/KeepItSecret.jpg","imgNWTK/KeepItSecret.jpg","imgNWTK/FindOutNow.jpg","info","optim","2.97","","41","2","1","0","null","imgNWTK/FindOutNow.jpg","imgNWTK/KeepItSecret.jpg","imgNWTK/FindOutNow.jpg","NaN","NaN","","",""
"1494","","","bandit-task-exp6","51","428953","0.0-8.0-0.11","male","20","Australia","61475","26284","imgNWTK/FindOutNow.jpg","imgNWTK/KeepItSecret.jpg","imgNWTK/KeepItSecret.jpg","imgNWTK/FindOutNow.jpg","info","optim","2.97","","42","1","1","90","null","imgNWTK/KeepItSecret.jpg","imgNWTK/FindOutNow.jpg","imgNWTK/KeepItSecret.jpg","NaN","NaN","","",""
"815","","","bandit-task-exp6","52","432108","0.0-8.0-0.12","male","20","Australia","61475","26284","imgNWTK/FindOutNow.jpg","imgNWTK/KeepItSecret.jpg","imgNWTK/KeepItSecret.jpg","imgNWTK/FindOutNow.jpg","info","optim","2.97","","43","1","1","70","null","imgNWTK/FindOutNow.jpg","imgNWTK/KeepItSecret.jpg","imgNWTK/KeepItSecret.jpg","NaN","NaN","","",""
"985","","","bandit-task-exp6","53","436020","0.0-8.0-0.13","male","20","Australia","61475","26284","imgNWTK/FindOutNow.jpg","imgNWTK/KeepItSecret.jpg","imgNWTK/KeepItSecret.jpg","imgNWTK/FindOutNow.jpg","info","optim","2.97","","44","1","2","0","null","imgNWTK/FindOutNow.jpg","imgNWTK/KeepItSecret.jpg","imgNWTK/KeepItSecret.jpg","NaN","NaN","","",""
"542","","","bandit-task-exp6","54","439193","0.0-8.0-0.14","male","20","Australia","61475","26284","imgNWTK/FindOutNow.jpg","imgNWTK/KeepItSecret.jpg","imgNWTK/KeepItSecret.jpg","imgNWTK/FindOutNow.jpg","info","optim","2.97","","45","1","1","71","null","imgNWTK/FindOutNow.jpg","imgNWTK/KeepItSecret.jpg","imgNWTK/KeepItSecret.jpg","NaN","NaN","","",""
"null","<p><b> Congratulations, you have finished this block. </b> </p><p>Please take a short break before moving onto the next block.</p><p>The next block will start after a 15 second break.</p><b>Remember, the point rewards are the same between blocks","","html-keyboard-response","55","454204","0.0-9.0","male","20","Australia","61475","26284","imgNWTK/FindOutNow.jpg","imgNWTK/KeepItSecret.jpg","imgNWTK/KeepItSecret.jpg","imgNWTK/FindOutNow.jpg","info","optim","2.97","","","","","","","","","","","","null","",""
"32459","","","bandit-task-exp6","56","489443","0.0-10.0-0.0","male","20","Australia","61475","26284","imgNWTK/FindOutNow.jpg","imgNWTK/KeepItSecret.jpg","imgNWTK/KeepItSecret.jpg","imgNWTK/FindOutNow.jpg","info","optim","2.97","","46","2","1","0","null","imgNWTK/KeepItSecret.jpg","imgNWTK/FindOutNow.jpg","imgNWTK/FindOutNow.jpg","78","180","","",""
"13045","","","bandit-task-exp6","57","505400","0.0-10.0-0.1","male","20","Australia","61475","26284","imgNWTK/FindOutNow.jpg","imgNWTK/KeepItSecret.jpg","imgNWTK/KeepItSecret.jpg","imgNWTK/FindOutNow.jpg","info","optim","2.97","","47","1","1","73","null","imgNWTK/KeepItSecret.jpg","imgNWTK/FindOutNow.jpg","imgNWTK/KeepItSecret.jpg","78","120","","",""
"7035","","","bandit-task-exp6","58","515061","0.0-10.0-0.2","male","20","Australia","61475","26284","imgNWTK/FindOutNow.jpg","imgNWTK/KeepItSecret.jpg","imgNWTK/KeepItSecret.jpg","imgNWTK/FindOutNow.jpg","info","optim","2.97","","48","2","1","0","null","imgNWTK/KeepItSecret.jpg","imgNWTK/FindOutNow.jpg","imgNWTK/FindOutNow.jpg","75","150","","",""
"13980","","","bandit-task-exp6","59","531941","0.0-10.0-0.3","male","20","Australia","61475","26284","imgNWTK/FindOutNow.jpg","imgNWTK/KeepItSecret.jpg","imgNWTK/KeepItSecret.jpg","imgNWTK/FindOutNow.jpg","info","optim","2.97","","49","2","1","0","null","imgNWTK/FindOutNow.jpg","imgNWTK/KeepItSecret.jpg","imgNWTK/FindOutNow.jpg","120","75","","",""
"6768","","","bandit-task-exp6","60","541851","0.0-10.0-0.4","male","20","Australia","61475","26284","imgNWTK/FindOutNow.jpg","imgNWTK/KeepItSecret.jpg","imgNWTK/KeepItSecret.jpg","imgNWTK/FindOutNow.jpg","info","optim","2.97","","50","2","1","0","null","imgNWTK/FindOutNow.jpg","imgNWTK/KeepItSecret.jpg","imgNWTK/FindOutNow.jpg","150","75","","",""
"6721","","","bandit-task-exp6","61","551475","0.0-10.0-0.5","male","20","Australia","61475","26284","imgNWTK/FindOutNow.jpg","imgNWTK/KeepItSecret.jpg","imgNWTK/KeepItSecret.jpg","imgNWTK/FindOutNow.jpg","info","optim","2.97","","51","2","1","0","null","imgNWTK/FindOutNow.jpg","imgNWTK/KeepItSecret.jpg","imgNWTK/FindOutNow.jpg","120","75","","",""
"4968","","","bandit-task-exp6","62","559301","0.0-10.0-0.6","male","20","Australia","61475","26284","imgNWTK/FindOutNow.jpg","imgNWTK/KeepItSecret.jpg","imgNWTK/KeepItSecret.jpg","imgNWTK/FindOutNow.jpg","info","optim","2.97","","52","1","1","73","null","imgNWTK/KeepItSecret.jpg","imgNWTK/FindOutNow.jpg","imgNWTK/KeepItSecret.jpg","78","0","","",""
"4815","","","bandit-task-exp6","63","567071","0.0-10.0-0.7","male","20","Australia","61475","26284","imgNWTK/FindOutNow.jpg","imgNWTK/KeepItSecret.jpg","imgNWTK/KeepItSecret.jpg","imgNWTK/FindOutNow.jpg","info","optim","2.97","","53","1","1","79","null","imgNWTK/FindOutNow.jpg","imgNWTK/KeepItSecret.jpg","imgNWTK/KeepItSecret.jpg","0","73","","",""
"6694","","","bandit-task-exp6","64","576657","0.0-10.0-0.8","male","20","Australia","61475","26284","imgNWTK/FindOutNow.jpg","imgNWTK/KeepItSecret.jpg","imgNWTK/KeepItSecret.jpg","imgNWTK/FindOutNow.jpg","info","optim","2.97","","54","1","2","0","null","imgNWTK/FindOutNow.jpg","imgNWTK/KeepItSecret.jpg","imgNWTK/KeepItSecret.jpg","0","78","","",""
"5565","","","bandit-task-exp6","65","585370","0.0-10.0-0.9","male","20","Australia","61475","26284","imgNWTK/FindOutNow.jpg","imgNWTK/KeepItSecret.jpg","imgNWTK/KeepItSecret.jpg","imgNWTK/FindOutNow.jpg","info","optim","2.97","","55","2","1","0","null","imgNWTK/KeepItSecret.jpg","imgNWTK/FindOutNow.jpg","imgNWTK/FindOutNow.jpg","78","150","","",""
"5188","","","bandit-task-exp6","66","593561","0.0-10.0-0.10","male","20","Australia","61475","26284","imgNWTK/FindOutNow.jpg","imgNWTK/KeepItSecret.jpg","imgNWTK/KeepItSecret.jpg","imgNWTK/FindOutNow.jpg","info","optim","2.97","","56","2","1","0","null","imgNWTK/FindOutNow.jpg","imgNWTK/KeepItSecret.jpg","imgNWTK/FindOutNow.jpg","150","78","","",""
"6602","","","bandit-task-exp6","67","603302","0.0-10.0-0.11","male","20","Australia","61475","26284","imgNWTK/FindOutNow.jpg","imgNWTK/KeepItSecret.jpg","imgNWTK/KeepItSecret.jpg","imgNWTK/FindOutNow.jpg","info","optim","2.97","","57","2","2","114","null","imgNWTK/FindOutNow.jpg","imgNWTK/KeepItSecret.jpg","imgNWTK/FindOutNow.jpg","120","78","","",""
"5499","","","bandit-task-exp6","68","611523","0.0-10.0-0.12","male","20","Australia","61475","26284","imgNWTK/FindOutNow.jpg","imgNWTK/KeepItSecret.jpg","imgNWTK/KeepItSecret.jpg","imgNWTK/FindOutNow.jpg","info","optim","2.97","","58","2","1","0","null","imgNWTK/FindOutNow.jpg","imgNWTK/KeepItSecret.jpg","imgNWTK/FindOutNow.jpg","115","75","","",""
"4729","","","bandit-task-exp6","69","619036","0.0-10.0-0.13","male","20","Australia","61475","26284","imgNWTK/FindOutNow.jpg","imgNWTK/KeepItSecret.jpg","imgNWTK/KeepItSecret.jpg","imgNWTK/FindOutNow.jpg","info","optim","2.97","","59","1","2","0","null","imgNWTK/FindOutNow.jpg","imgNWTK/KeepItSecret.jpg","imgNWTK/KeepItSecret.jpg","115","78","","",""
"4557","","","bandit-task-exp6","70","626518","0.0-10.0-0.14","male","20","Australia","61475","26284","imgNWTK/FindOutNow.jpg","imgNWTK/KeepItSecret.jpg","imgNWTK/KeepItSecret.jpg","imgNWTK/FindOutNow.jpg","info","optim","2.97","","60","1","1","79","null","imgNWTK/KeepItSecret.jpg","imgNWTK/FindOutNow.jpg","imgNWTK/KeepItSecret.jpg","75","115","","",""
"3550","<p> Congratulations, you have finished the main part of the experiment. </p><p>Before you finish, we have a few short questions about the options and outcomes you saw in the task.</p>","0","html-button-response","71","630069","0.0-11.0","male","20","Australia","61475","26284","imgNWTK/FindOutNow.jpg","imgNWTK/KeepItSecret.jpg","imgNWTK/KeepItSecret.jpg","imgNWTK/FindOutNow.jpg","info","optim","2.97","","","","","","","","","","","","","",""
"17301","<p><b>Now, imagine that you clicked on the below button for another 10 trials (this includes <i> BOTH WIN and NO-WIN trials</i>).</p> <img src= 'imgNWTK/KeepItSecret.jpg'></img></br></br> <p><b>Please type the reward (number of points) you would expect to receive on every trial.</br> Click start to begin.</p>","0","html-button-response","72","647371","0.0-12.0","male","20","Australia","61475","26284","imgNWTK/FindOutNow.jpg","imgNWTK/KeepItSecret.jpg","imgNWTK/KeepItSecret.jpg","imgNWTK/FindOutNow.jpg","info","optim","2.97","","","","","","","","","","","","","",""
"16160.799999999814","","","survey-number","73","663536","0.0-13.0-0.0","male","20","Australia","61475","26284","imgNWTK/FindOutNow.jpg","imgNWTK/KeepItSecret.jpg","imgNWTK/KeepItSecret.jpg","imgNWTK/FindOutNow.jpg","info","optim","2.97","{""undefined"":""73""}","","","","","","","","","","","","imgNWTK/KeepItSecret.jpg",""
"6123.5","","","survey-number","74","669661","0.0-13.0-0.1","male","20","Australia","61475","26284","imgNWTK/FindOutNow.jpg","imgNWTK/KeepItSecret.jpg","imgNWTK/KeepItSecret.jpg","imgNWTK/FindOutNow.jpg","info","optim","2.97","{""undefined"":""78""}","","","","","","","","","","","","imgNWTK/KeepItSecret.jpg",""
"3919.0999999998603","","","survey-number","75","673583","0.0-13.0-0.2","male","20","Australia","61475","26284","imgNWTK/FindOutNow.jpg","imgNWTK/KeepItSecret.jpg","imgNWTK/KeepItSecret.jpg","imgNWTK/FindOutNow.jpg","info","optim","2.97","{""undefined"":""0""}","","","","","","","","","","","","imgNWTK/KeepItSecret.jpg",""
"1619.0999999998603","","","survey-number","76","675205","0.0-13.0-0.3","male","20","Australia","61475","26284","imgNWTK/FindOutNow.jpg","imgNWTK/KeepItSecret.jpg","imgNWTK/KeepItSecret.jpg","imgNWTK/FindOutNow.jpg","info","optim","2.97","{""undefined"":""0""}","","","","","","","","","","","","imgNWTK/KeepItSecret.jpg",""
"3908.9000000001397","","","survey-number","77","679115","0.0-13.0-0.4","male","20","Australia","61475","26284","imgNWTK/FindOutNow.jpg","imgNWTK/KeepItSecret.jpg","imgNWTK/KeepItSecret.jpg","imgNWTK/FindOutNow.jpg","info","optim","2.97","{""undefined"":""73""}","","","","","","","","","","","","imgNWTK/KeepItSecret.jpg",""
"3024.3000000000466","","","survey-number","78","682142","0.0-13.0-0.5","male","20","Australia","61475","26284","imgNWTK/FindOutNow.jpg","imgNWTK/KeepItSecret.jpg","imgNWTK/KeepItSecret.jpg","imgNWTK/FindOutNow.jpg","info","optim","2.97","{""undefined"":""75""}","","","","","","","","","","","","imgNWTK/KeepItSecret.jpg",""
"3267.5","","","survey-number","79","685412","0.0-13.0-0.6","male","20","Australia","61475","26284","imgNWTK/FindOutNow.jpg","imgNWTK/KeepItSecret.jpg","imgNWTK/KeepItSecret.jpg","imgNWTK/FindOutNow.jpg","info","optim","2.97","{""undefined"":""0""}","","","","","","","","","","","","imgNWTK/KeepItSecret.jpg",""
"5177","","","survey-number","80","690591","0.0-13.0-0.7","male","20","Australia","61475","26284","imgNWTK/FindOutNow.jpg","imgNWTK/KeepItSecret.jpg","imgNWTK/KeepItSecret.jpg","imgNWTK/FindOutNow.jpg","info","optim","2.97","{""undefined"":""79""}","","","","","","","","","","","","imgNWTK/KeepItSecret.jpg",""
"1006.6999999999534","","","survey-number","81","691600","0.0-13.0-0.8","male","20","Australia","61475","26284","imgNWTK/FindOutNow.jpg","imgNWTK/KeepItSecret.jpg","imgNWTK/KeepItSecret.jpg","imgNWTK/FindOutNow.jpg","info","optim","2.97","{""undefined"":""0""}","","","","","","","","","","","","imgNWTK/KeepItSecret.jpg",""
"3682.9000000001397","","","survey-number","82","695286","0.0-13.0-0.9","male","20","Australia","61475","26284","imgNWTK/FindOutNow.jpg","imgNWTK/KeepItSecret.jpg","imgNWTK/KeepItSecret.jpg","imgNWTK/FindOutNow.jpg","info","optim","2.97","{""undefined"":""0""}","","","","","","","","","","","","imgNWTK/KeepItSecret.jpg",""
"8301","<p><b>Imagine that you clicked on the below button for another 10 trials (this includes <i> both WIN and NO-WIN trials</i>).</p> <img src= 'imgNWTK/FindOutNow.jpg'></img></br></br> <p><b>Please type the reward (number of points) you would expect to receive on every trial.</br> Click start to begin.</p>","0","html-button-response","83","703588","0.0-14.0","male","20","Australia","61475","26284","imgNWTK/FindOutNow.jpg","imgNWTK/KeepItSecret.jpg","imgNWTK/KeepItSecret.jpg","imgNWTK/FindOutNow.jpg","info","optim","2.97","","","","","","","","","","","","","",""
"2377.899999999907","","","survey-number","84","705967","0.0-15.0-0.0","male","20","Australia","61475","26284","imgNWTK/FindOutNow.jpg","imgNWTK/KeepItSecret.jpg","imgNWTK/KeepItSecret.jpg","imgNWTK/FindOutNow.jpg","info","optim","2.97","{""undefined"":""0""}","","","","","","","","","","","","imgNWTK/FindOutNow.jpg",""
"763.3000000000466","","","survey-number","85","706733","0.0-15.0-0.1","male","20","Australia","61475","26284","imgNWTK/FindOutNow.jpg","imgNWTK/KeepItSecret.jpg","imgNWTK/KeepItSecret.jpg","imgNWTK/FindOutNow.jpg","info","optim","2.97","{""undefined"":""0""}","","","","","","","","","","","","imgNWTK/FindOutNow.jpg",""
"763.1999999999534","","","survey-number","86","707498","0.0-15.0-0.2","male","20","Australia","61475","26284","imgNWTK/FindOutNow.jpg","imgNWTK/KeepItSecret.jpg","imgNWTK/KeepItSecret.jpg","imgNWTK/FindOutNow.jpg","info","optim","2.97","{""undefined"":""0""}","","","","","","","","","","","","imgNWTK/FindOutNow.jpg",""
"2514.8000000000466","","","survey-number","87","710014","0.0-15.0-0.3","male","20","Australia","61475","26284","imgNWTK/FindOutNow.jpg","imgNWTK/KeepItSecret.jpg","imgNWTK/KeepItSecret.jpg","imgNWTK/FindOutNow.jpg","info","optim","2.97","{""undefined"":""115""}","","","","","","","","","","","","imgNWTK/FindOutNow.jpg",""
"13854.200000000186","","","survey-number","88","723872","0.0-15.0-0.4","male","20","Australia","61475","26284","imgNWTK/FindOutNow.jpg","imgNWTK/KeepItSecret.jpg","imgNWTK/KeepItSecret.jpg","imgNWTK/FindOutNow.jpg","info","optim","2.97","{""undefined"":""120""}","","","","","","","","","","","","imgNWTK/FindOutNow.jpg",""
"3257.8000000000466","","","survey-number","89","727134","0.0-15.0-0.5","male","20","Australia","61475","26284","imgNWTK/FindOutNow.jpg","imgNWTK/KeepItSecret.jpg","imgNWTK/KeepItSecret.jpg","imgNWTK/FindOutNow.jpg","info","optim","2.97","{""undefined"":""0""}","","","","","","","","","","","","imgNWTK/FindOutNow.jpg",""
"3829.9000000001397","","","survey-number","90","730967","0.0-15.0-0.6","male","20","Australia","61475","26284","imgNWTK/FindOutNow.jpg","imgNWTK/KeepItSecret.jpg","imgNWTK/KeepItSecret.jpg","imgNWTK/FindOutNow.jpg","info","optim","2.97","{""undefined"":""0""}","","","","","","","","","","","","imgNWTK/FindOutNow.jpg",""
"8229.5","","","survey-number","91","739199","0.0-15.0-0.7","male","20","Australia","61475","26284","imgNWTK/FindOutNow.jpg","imgNWTK/KeepItSecret.jpg","imgNWTK/KeepItSecret.jpg","imgNWTK/FindOutNow.jpg","info","optim","2.97","{""undefined"":""115""}","","","","","","","","","","","","imgNWTK/FindOutNow.jpg",""
"3191.100000000093","","","survey-number","92","742392","0.0-15.0-0.8","male","20","Australia","61475","26284","imgNWTK/FindOutNow.jpg","imgNWTK/KeepItSecret.jpg","imgNWTK/KeepItSecret.jpg","imgNWTK/FindOutNow.jpg","info","optim","2.97","{""undefined"":""130""}","","","","","","","","","","","","imgNWTK/FindOutNow.jpg",""
"4423.800000000047","","","survey-number","93","746818","0.0-15.0-0.9","male","20","Australia","61475","26284","imgNWTK/FindOutNow.jpg","imgNWTK/KeepItSecret.jpg","imgNWTK/KeepItSecret.jpg","imgNWTK/FindOutNow.jpg","info","optim","2.97","{""undefined"":""120""}","","","","","","","","","","","","imgNWTK/FindOutNow.jpg",""
"11909.699999999953","","","survey-number","94","758736","0.0-16.0","male","20","Australia","61475","26284","imgNWTK/FindOutNow.jpg","imgNWTK/KeepItSecret.jpg","imgNWTK/KeepItSecret.jpg","imgNWTK/FindOutNow.jpg","info","optim","2.97","{""undefined"":""72""}","","","","","","","","","","","","","imgNWTK/KeepItSecret.jpg"
"4517.300000000047","","","survey-number","95","763255","0.0-17.0","male","20","Australia","61475","26284","imgNWTK/FindOutNow.jpg","imgNWTK/KeepItSecret.jpg","imgNWTK/KeepItSecret.jpg","imgNWTK/FindOutNow.jpg","info","optim","2.97","{""undefined"":""125""}","","","","","","","","","","","","","imgNWTK/FindOutNow.jpg"
"32314","<p style=""text-align:left;"">Great! We are almost at the end of the study... (Please do not close the browser window yet.)</p><p> Your final points balance is 2973, which equals to a bonus payment of $2.97. Please collect your payment from Mathews Building Room 721 (Wed-Fri 9am-5pm); please email jaimie.lee@unsw.edu.au at least 24 hours prior to collection so that this is ready for you.</p><p style=""text-align:left;"">To view the debriefing form, please click <a href=""./imgNWTK/debrief_3205.pdf"" target=""_blank"">here</a> to download a copy.</p><p style=""text-align:left;"">Then, <b>please click the below button</b> to confirm that you have received your debrief and to complete the study. Upon clicking ""Finish!"", your SONA credit will be automatically assigned.</p>","0","html-button-response","96","795570","0.0-18.0","male","20","Australia","61475","26284","imgNWTK/FindOutNow.jpg","imgNWTK/KeepItSecret.jpg","imgNWTK/KeepItSecret.jpg","imgNWTK/FindOutNow.jpg","info","optim","2.97","","","","","","","","","","","","","",""
