"rt","stimulus","button_pressed","trial_type","trial_index","time_elapsed","internal_node_id","gender","age","language","PID","sona_id","subStim","optStim","stim1","stim2","infoCond","optimCond","bonus","responses","banditTrial","choice","cue","feedback","estimateData","leftOption","rightOption","choiceName","leftInput","rightInput","key_press","postQ","singleEst"
"10181","<p>Thank you for signing up to participate in SONA Study 476! <br> During this study, please focus on the experiment and refrain from activities such as:</p>- <b>Switching to other tabs on your browser (this will be monitored via the experiment)</br> - Using your mobile phone/cell phone</br> - Communicating with others</br></br></b><p>This way, you are helping to provide data that is useful for psychological research. We thank you for your cooperation!</p>","0","html-button-response","0","10183","0.0-0.0","female","18","Australia","49960","24981","neither","neither","imgNWTK/KeepItSecret.jpg","imgNWTK/FindOutNow.jpg","info","eq","2.81","","","","","","","","","","","","","",""
"1385","<p>Welcome to the experiment!</p><p>You will now read some instructions about the task. Press the 'Next' button to continue. </p>","0","html-button-response","1","11569","0.0-1.0","female","18","Australia","49960","24981","neither","neither","imgNWTK/KeepItSecret.jpg","imgNWTK/FindOutNow.jpg","info","eq","2.81","","","","","","","","","","","","","",""
"14865","<p> On each trial throughout the experiment you will choose between the options </br><b> Find Out Now </b> and <b> Keep It Secret </b>, as shown below.</p><div><div style= 'float: left; width: 300px; margin: 10px 10px;'><img src= 'imgNWTK/KeepItSecret.jpg'></img></div><div style= 'float: right; width: 300px; margin: 10px 10px;'><img src= 'imgNWTK/FindOutNow.jpg'></img></div></div><br/><br/><br/><br/><br/><br/><br/><br/><br/><br/><br/><p>Each option results in winning points or receiving 0 points.</br>There is a 50% chance of either winning or receiving 0 points.</p><p>You won't receive the outcome until after a <b> 20 second delay</b>. However, selecting the Find Out Now option will allow you to find out about the outcome early, whereas the Keep It Secret option will not. </p>","0","html-button-response","2","26435","0.0-2.0-0.0","female","18","Australia","49960","24981","neither","neither","imgNWTK/KeepItSecret.jpg","imgNWTK/FindOutNow.jpg","info","eq","2.81","","","","","","","","","","","","","",""
"34232","<img src= 'cues/Experiment6.png'></img><p>As seen above, when choosing the <b>'Find Out Now'</b> option, you will receive either a happy face or sad face.</br>The happy face means you will win points after the delay, whereas the sad face means you will receive 0 points.</br></p><p> When choosing the <b> 'Keep it Secret' </b> option you will receive a confused face.</br> This face appears regardless of whether you are going to win points or not. </p>In short, choosing 'Find Out Now' allows you to find out the outcome before you experience it (after the delay).</br></br>","0","html-button-response","3","60669","0.0-2.0-1.0","female","18","Australia","49960","24981","neither","neither","imgNWTK/KeepItSecret.jpg","imgNWTK/FindOutNow.jpg","info","eq","2.81","","","","","","","","","","","","","",""
"4027","<img src= 'cues/winTrials_info.png' width = '1200'></img><p>To reiterate, 50% of the outcomes of each option will be WIN TRIALS, and the other 50% will be NO-WIN TRIALS.","0","html-button-response","4","64698","0.0-2.0-2.0","female","18","Australia","49960","24981","neither","neither","imgNWTK/KeepItSecret.jpg","imgNWTK/FindOutNow.jpg","info","eq","2.81","","","","","","","","","","","","","",""
"5143","<p> There will be <b>four blocks</b> in the experiment.</br>You will be given a short 15 second break between each block.</p><p><b>The points and the options will remain the same between the blocks.</b></p>The blocks are there just to give you a small break.</br></br><p>The points you earn in the task are also equal to <b> actual money</b>.</br> <b>1000 points is equal to $1.</b></p><p>This is the rate you will be paid at the experiment's end.","0","html-button-response","5","69843","0.0-2.0-3.0","female","18","Australia","49960","24981","neither","neither","imgNWTK/KeepItSecret.jpg","imgNWTK/FindOutNow.jpg","info","eq","2.81","","","","","","","","","","","","","",""
"15987","","","survey-multi-choice","6","85836","0.0-2.0-4.0","female","18","Australia","49960","24981","neither","neither","imgNWTK/KeepItSecret.jpg","imgNWTK/FindOutNow.jpg","info","eq","2.81","{""Q0"":""20 Seconds"",""Q1"":""True"",""Q2"":""Equally"",""Q3"":""True""}","","","","","","","","","","","","",""
"3657","<p> Well done, all your answers were correct! <br> The experiment is about to start now. <br/> Click start to continue, or email your researcher <b>(amy.x.li@unsw.edu.au)</b> if you have any questions before starting.","0","html-button-response","7","89497","0.0-3.0","female","18","Australia","49960","24981","neither","neither","imgNWTK/KeepItSecret.jpg","imgNWTK/FindOutNow.jpg","info","eq","2.81","","","","","","","","","","","","","",""
"1535","","","bandit-task-exp6","8","116808","0.0-4.0-0.0","female","18","Australia","49960","24981","neither","neither","imgNWTK/KeepItSecret.jpg","imgNWTK/FindOutNow.jpg","info","eq","2.81","","1","2","2","96","null","imgNWTK/FindOutNow.jpg","imgNWTK/KeepItSecret.jpg","imgNWTK/FindOutNow.jpg","NaN","NaN","","",""
"685","","","bandit-task-exp6","9","140397","0.0-4.0-0.1","female","18","Australia","49960","24981","neither","neither","imgNWTK/KeepItSecret.jpg","imgNWTK/FindOutNow.jpg","info","eq","2.81","","2","1","1","98","null","imgNWTK/KeepItSecret.jpg","imgNWTK/FindOutNow.jpg","imgNWTK/KeepItSecret.jpg","NaN","NaN","","",""
"712","","","bandit-task-exp6","10","164443","0.0-4.0-0.2","female","18","Australia","49960","24981","neither","neither","imgNWTK/KeepItSecret.jpg","imgNWTK/FindOutNow.jpg","info","eq","2.81","","3","2","1","0","null","imgNWTK/FindOutNow.jpg","imgNWTK/KeepItSecret.jpg","imgNWTK/FindOutNow.jpg","NaN","NaN","","",""
"690","","","bandit-task-exp6","11","195385","0.0-4.0-0.3","female","18","Australia","49960","24981","neither","neither","imgNWTK/KeepItSecret.jpg","imgNWTK/FindOutNow.jpg","info","eq","2.81","","4","2","2","97","null","imgNWTK/FindOutNow.jpg","imgNWTK/KeepItSecret.jpg","imgNWTK/FindOutNow.jpg","NaN","NaN","","",""
"2097","","","bandit-task-exp6","12","223130","0.0-4.0-0.4","female","18","Australia","49960","24981","neither","neither","imgNWTK/KeepItSecret.jpg","imgNWTK/FindOutNow.jpg","info","eq","2.81","","5","1","2","0","null","imgNWTK/FindOutNow.jpg","imgNWTK/KeepItSecret.jpg","imgNWTK/KeepItSecret.jpg","NaN","NaN","","",""
"8000","","","bandit-task-exp6","13","262564","0.0-4.0-0.5","female","18","Australia","49960","24981","neither","neither","imgNWTK/KeepItSecret.jpg","imgNWTK/FindOutNow.jpg","info","eq","2.81","","6","1","1","95","null","imgNWTK/KeepItSecret.jpg","imgNWTK/FindOutNow.jpg","imgNWTK/KeepItSecret.jpg","NaN","NaN","","",""
"1347","","","bandit-task-exp6","14","286151","0.0-4.0-0.6","female","18","Australia","49960","24981","neither","neither","imgNWTK/KeepItSecret.jpg","imgNWTK/FindOutNow.jpg","info","eq","2.81","","7","2","2","99","null","imgNWTK/FindOutNow.jpg","imgNWTK/KeepItSecret.jpg","imgNWTK/FindOutNow.jpg","NaN","NaN","","",""
"655","","","bandit-task-exp6","15","311073","0.0-4.0-0.7","female","18","Australia","49960","24981","neither","neither","imgNWTK/KeepItSecret.jpg","imgNWTK/FindOutNow.jpg","info","eq","2.81","","8","2","1","0","null","imgNWTK/KeepItSecret.jpg","imgNWTK/FindOutNow.jpg","imgNWTK/FindOutNow.jpg","NaN","NaN","","",""
"533","","","bandit-task-exp6","16","334312","0.0-4.0-0.8","female","18","Australia","49960","24981","neither","neither","imgNWTK/KeepItSecret.jpg","imgNWTK/FindOutNow.jpg","info","eq","2.81","","9","2","1","0","null","imgNWTK/FindOutNow.jpg","imgNWTK/KeepItSecret.jpg","imgNWTK/FindOutNow.jpg","NaN","NaN","","",""
"518","","","bandit-task-exp6","17","356879","0.0-4.0-0.9","female","18","Australia","49960","24981","neither","neither","imgNWTK/KeepItSecret.jpg","imgNWTK/FindOutNow.jpg","info","eq","2.81","","10","1","2","0","null","imgNWTK/KeepItSecret.jpg","imgNWTK/FindOutNow.jpg","imgNWTK/KeepItSecret.jpg","NaN","NaN","","",""
"605","","","bandit-task-exp6","18","379677","0.0-4.0-0.10","female","18","Australia","49960","24981","neither","neither","imgNWTK/KeepItSecret.jpg","imgNWTK/FindOutNow.jpg","info","eq","2.81","","11","1","2","0","null","imgNWTK/KeepItSecret.jpg","imgNWTK/FindOutNow.jpg","imgNWTK/KeepItSecret.jpg","NaN","NaN","","",""
"8125","","","bandit-task-exp6","19","415280","0.0-4.0-0.11","female","18","Australia","49960","24981","neither","neither","imgNWTK/KeepItSecret.jpg","imgNWTK/FindOutNow.jpg","info","eq","2.81","","12","1","2","0","null","imgNWTK/KeepItSecret.jpg","imgNWTK/FindOutNow.jpg","imgNWTK/KeepItSecret.jpg","NaN","NaN","","",""
"1096","","","bandit-task-exp6","20","442435","0.0-4.0-0.12","female","18","Australia","49960","24981","neither","neither","imgNWTK/KeepItSecret.jpg","imgNWTK/FindOutNow.jpg","info","eq","2.81","","13","1","2","0","null","imgNWTK/KeepItSecret.jpg","imgNWTK/FindOutNow.jpg","imgNWTK/KeepItSecret.jpg","NaN","NaN","","",""
"2317","","","bandit-task-exp6","21","467814","0.0-4.0-0.13","female","18","Australia","49960","24981","neither","neither","imgNWTK/KeepItSecret.jpg","imgNWTK/FindOutNow.jpg","info","eq","2.81","","14","1","1","106","null","imgNWTK/KeepItSecret.jpg","imgNWTK/FindOutNow.jpg","imgNWTK/KeepItSecret.jpg","NaN","NaN","","",""
"2218","","","bandit-task-exp6","22","493448","0.0-4.0-0.14","female","18","Australia","49960","24981","neither","neither","imgNWTK/KeepItSecret.jpg","imgNWTK/FindOutNow.jpg","info","eq","2.81","","15","2","1","0","null","imgNWTK/FindOutNow.jpg","imgNWTK/KeepItSecret.jpg","imgNWTK/FindOutNow.jpg","NaN","NaN","","",""
"null","<p><b> Congratulations, you have finished this block. </b> </p><p>Please take a short break before moving onto the next block.</p><p>The next block will start after a 15 second break.</p><b>Remember, the point rewards are the same between blocks","","html-keyboard-response","23","508462","0.0-5.0","female","18","Australia","49960","24981","neither","neither","imgNWTK/KeepItSecret.jpg","imgNWTK/FindOutNow.jpg","info","eq","2.81","","","","","","","","","","","","null","",""
"4505","","","bandit-task-exp6","24","535352","0.0-6.0-0.0","female","18","Australia","49960","24981","neither","neither","imgNWTK/KeepItSecret.jpg","imgNWTK/FindOutNow.jpg","info","eq","2.81","","16","2","2","110","null","imgNWTK/FindOutNow.jpg","imgNWTK/KeepItSecret.jpg","imgNWTK/FindOutNow.jpg","NaN","NaN","","",""
"868","","","bandit-task-exp6","25","558628","0.0-6.0-0.1","female","18","Australia","49960","24981","neither","neither","imgNWTK/KeepItSecret.jpg","imgNWTK/FindOutNow.jpg","info","eq","2.81","","17","2","1","0","null","imgNWTK/FindOutNow.jpg","imgNWTK/KeepItSecret.jpg","imgNWTK/FindOutNow.jpg","NaN","NaN","","",""
"583","","","bandit-task-exp6","26","582466","0.0-6.0-0.2","female","18","Australia","49960","24981","neither","neither","imgNWTK/KeepItSecret.jpg","imgNWTK/FindOutNow.jpg","info","eq","2.81","","18","2","1","0","null","imgNWTK/FindOutNow.jpg","imgNWTK/KeepItSecret.jpg","imgNWTK/FindOutNow.jpg","NaN","NaN","","",""
"4081","","","bandit-task-exp6","27","609960","0.0-6.0-0.3","female","18","Australia","49960","24981","neither","neither","imgNWTK/KeepItSecret.jpg","imgNWTK/FindOutNow.jpg","info","eq","2.81","","19","2","1","0","null","imgNWTK/KeepItSecret.jpg","imgNWTK/FindOutNow.jpg","imgNWTK/FindOutNow.jpg","NaN","NaN","","",""
"562","","","bandit-task-exp6","28","635937","0.0-6.0-0.4","female","18","Australia","49960","24981","neither","neither","imgNWTK/KeepItSecret.jpg","imgNWTK/FindOutNow.jpg","info","eq","2.81","","20","2","1","0","null","imgNWTK/FindOutNow.jpg","imgNWTK/KeepItSecret.jpg","imgNWTK/FindOutNow.jpg","NaN","NaN","","",""
"803","","","bandit-task-exp6","29","661295","0.0-6.0-0.5","female","18","Australia","49960","24981","neither","neither","imgNWTK/KeepItSecret.jpg","imgNWTK/FindOutNow.jpg","info","eq","2.81","","21","1","1","91","null","imgNWTK/KeepItSecret.jpg","imgNWTK/FindOutNow.jpg","imgNWTK/KeepItSecret.jpg","NaN","NaN","","",""
"633","","","bandit-task-exp6","30","685251","0.0-6.0-0.6","female","18","Australia","49960","24981","neither","neither","imgNWTK/KeepItSecret.jpg","imgNWTK/FindOutNow.jpg","info","eq","2.81","","22","1","1","110","null","imgNWTK/FindOutNow.jpg","imgNWTK/KeepItSecret.jpg","imgNWTK/KeepItSecret.jpg","NaN","NaN","","",""
"776","","","bandit-task-exp6","31","708053","0.0-6.0-0.7","female","18","Australia","49960","24981","neither","neither","imgNWTK/KeepItSecret.jpg","imgNWTK/FindOutNow.jpg","info","eq","2.81","","23","2","1","0","null","imgNWTK/FindOutNow.jpg","imgNWTK/KeepItSecret.jpg","imgNWTK/FindOutNow.jpg","NaN","NaN","","",""
"761","","","bandit-task-exp6","32","732171","0.0-6.0-0.8","female","18","Australia","49960","24981","neither","neither","imgNWTK/KeepItSecret.jpg","imgNWTK/FindOutNow.jpg","info","eq","2.81","","24","1","2","0","null","imgNWTK/FindOutNow.jpg","imgNWTK/KeepItSecret.jpg","imgNWTK/KeepItSecret.jpg","NaN","NaN","","",""
"797","","","bandit-task-exp6","33","755521","0.0-6.0-0.9","female","18","Australia","49960","24981","neither","neither","imgNWTK/KeepItSecret.jpg","imgNWTK/FindOutNow.jpg","info","eq","2.81","","25","1","1","92","null","imgNWTK/KeepItSecret.jpg","imgNWTK/FindOutNow.jpg","imgNWTK/KeepItSecret.jpg","NaN","NaN","","",""
"554","","","bandit-task-exp6","34","785524","0.0-6.0-0.10","female","18","Australia","49960","24981","neither","neither","imgNWTK/KeepItSecret.jpg","imgNWTK/FindOutNow.jpg","info","eq","2.81","","26","1","2","0","null","imgNWTK/KeepItSecret.jpg","imgNWTK/FindOutNow.jpg","imgNWTK/KeepItSecret.jpg","NaN","NaN","","",""
"1568","","","bandit-task-exp6","35","809920","0.0-6.0-0.11","female","18","Australia","49960","24981","neither","neither","imgNWTK/KeepItSecret.jpg","imgNWTK/FindOutNow.jpg","info","eq","2.81","","27","1","1","106","null","imgNWTK/KeepItSecret.jpg","imgNWTK/FindOutNow.jpg","imgNWTK/KeepItSecret.jpg","NaN","NaN","","",""
"3644","","","bandit-task-exp6","36","837006","0.0-6.0-0.12","female","18","Australia","49960","24981","neither","neither","imgNWTK/KeepItSecret.jpg","imgNWTK/FindOutNow.jpg","info","eq","2.81","","28","1","1","101","null","imgNWTK/FindOutNow.jpg","imgNWTK/KeepItSecret.jpg","imgNWTK/KeepItSecret.jpg","NaN","NaN","","",""
"657","","","bandit-task-exp6","37","860573","0.0-6.0-0.13","female","18","Australia","49960","24981","neither","neither","imgNWTK/KeepItSecret.jpg","imgNWTK/FindOutNow.jpg","info","eq","2.81","","29","1","2","0","null","imgNWTK/FindOutNow.jpg","imgNWTK/KeepItSecret.jpg","imgNWTK/KeepItSecret.jpg","NaN","NaN","","",""
"848","","","bandit-task-exp6","38","884111","0.0-6.0-0.14","female","18","Australia","49960","24981","neither","neither","imgNWTK/KeepItSecret.jpg","imgNWTK/FindOutNow.jpg","info","eq","2.81","","30","2","2","109","null","imgNWTK/FindOutNow.jpg","imgNWTK/KeepItSecret.jpg","imgNWTK/FindOutNow.jpg","NaN","NaN","","",""
"null","<p><b> Congratulations, you have finished this block. </b> </p><p>Please take a short break before moving onto the next block.</p><p>The next block will start after a 15 second break.</p><b>Remember, the point rewards are the same between blocks","","html-keyboard-response","39","899116","0.0-7.0","female","18","Australia","49960","24981","neither","neither","imgNWTK/KeepItSecret.jpg","imgNWTK/FindOutNow.jpg","info","eq","2.81","","","","","","","","","","","","null","",""
"1655","","","bandit-task-exp6","40","927993","0.0-8.0-0.0","female","18","Australia","49960","24981","neither","neither","imgNWTK/KeepItSecret.jpg","imgNWTK/FindOutNow.jpg","info","eq","2.81","","31","2","1","0","null","imgNWTK/KeepItSecret.jpg","imgNWTK/FindOutNow.jpg","imgNWTK/FindOutNow.jpg","NaN","NaN","","",""
"1246","","","bandit-task-exp6","41","954863","0.0-8.0-0.1","female","18","Australia","49960","24981","neither","neither","imgNWTK/KeepItSecret.jpg","imgNWTK/FindOutNow.jpg","info","eq","2.81","","32","1","1","90","null","imgNWTK/KeepItSecret.jpg","imgNWTK/FindOutNow.jpg","imgNWTK/KeepItSecret.jpg","NaN","NaN","","",""
"796","","","bandit-task-exp6","42","980188","0.0-8.0-0.2","female","18","Australia","49960","24981","neither","neither","imgNWTK/KeepItSecret.jpg","imgNWTK/FindOutNow.jpg","info","eq","2.81","","33","1","1","105","null","imgNWTK/KeepItSecret.jpg","imgNWTK/FindOutNow.jpg","imgNWTK/KeepItSecret.jpg","NaN","NaN","","",""
"785","","","bandit-task-exp6","43","1003515","0.0-8.0-0.3","female","18","Australia","49960","24981","neither","neither","imgNWTK/KeepItSecret.jpg","imgNWTK/FindOutNow.jpg","info","eq","2.81","","34","1","1","103","null","imgNWTK/FindOutNow.jpg","imgNWTK/KeepItSecret.jpg","imgNWTK/KeepItSecret.jpg","NaN","NaN","","",""
"1508","","","bandit-task-exp6","44","1027254","0.0-8.0-0.4","female","18","Australia","49960","24981","neither","neither","imgNWTK/KeepItSecret.jpg","imgNWTK/FindOutNow.jpg","info","eq","2.81","","35","2","1","0","null","imgNWTK/FindOutNow.jpg","imgNWTK/KeepItSecret.jpg","imgNWTK/FindOutNow.jpg","NaN","NaN","","",""
"6852","","","bandit-task-exp6","45","1056443","0.0-8.0-0.5","female","18","Australia","49960","24981","neither","neither","imgNWTK/KeepItSecret.jpg","imgNWTK/FindOutNow.jpg","info","eq","2.81","","36","2","1","0","null","imgNWTK/KeepItSecret.jpg","imgNWTK/FindOutNow.jpg","imgNWTK/FindOutNow.jpg","NaN","NaN","","",""
"817","","","bandit-task-exp6","46","1080606","0.0-8.0-0.6","female","18","Australia","49960","24981","neither","neither","imgNWTK/KeepItSecret.jpg","imgNWTK/FindOutNow.jpg","info","eq","2.81","","37","2","1","0","null","imgNWTK/FindOutNow.jpg","imgNWTK/KeepItSecret.jpg","imgNWTK/FindOutNow.jpg","NaN","NaN","","",""
"641","","","bandit-task-exp6","47","1105777","0.0-8.0-0.7","female","18","Australia","49960","24981","neither","neither","imgNWTK/KeepItSecret.jpg","imgNWTK/FindOutNow.jpg","info","eq","2.81","","38","1","2","0","null","imgNWTK/KeepItSecret.jpg","imgNWTK/FindOutNow.jpg","imgNWTK/KeepItSecret.jpg","NaN","NaN","","",""
"792","","","bandit-task-exp6","48","1129133","0.0-8.0-0.8","female","18","Australia","49960","24981","neither","neither","imgNWTK/KeepItSecret.jpg","imgNWTK/FindOutNow.jpg","info","eq","2.81","","39","2","1","0","null","imgNWTK/FindOutNow.jpg","imgNWTK/KeepItSecret.jpg","imgNWTK/FindOutNow.jpg","NaN","NaN","","",""
"1016","","","bandit-task-exp6","49","1152351","0.0-8.0-0.9","female","18","Australia","49960","24981","neither","neither","imgNWTK/KeepItSecret.jpg","imgNWTK/FindOutNow.jpg","info","eq","2.81","","40","1","2","0","null","imgNWTK/KeepItSecret.jpg","imgNWTK/FindOutNow.jpg","imgNWTK/KeepItSecret.jpg","NaN","NaN","","",""
"584","","","bandit-task-exp6","50","1182290","0.0-8.0-0.10","female","18","Australia","49960","24981","neither","neither","imgNWTK/KeepItSecret.jpg","imgNWTK/FindOutNow.jpg","info","eq","2.81","","41","1","1","109","null","imgNWTK/FindOutNow.jpg","imgNWTK/KeepItSecret.jpg","imgNWTK/KeepItSecret.jpg","NaN","NaN","","",""
"512","","","bandit-task-exp6","51","1208026","0.0-8.0-0.11","female","18","Australia","49960","24981","neither","neither","imgNWTK/KeepItSecret.jpg","imgNWTK/FindOutNow.jpg","info","eq","2.81","","42","1","2","0","null","imgNWTK/FindOutNow.jpg","imgNWTK/KeepItSecret.jpg","imgNWTK/KeepItSecret.jpg","NaN","NaN","","",""
"474","","","bandit-task-exp6","52","1231765","0.0-8.0-0.12","female","18","Australia","49960","24981","neither","neither","imgNWTK/KeepItSecret.jpg","imgNWTK/FindOutNow.jpg","info","eq","2.81","","43","2","1","0","null","imgNWTK/KeepItSecret.jpg","imgNWTK/FindOutNow.jpg","imgNWTK/FindOutNow.jpg","NaN","NaN","","",""
"968","","","bandit-task-exp6","53","1256289","0.0-8.0-0.13","female","18","Australia","49960","24981","neither","neither","imgNWTK/KeepItSecret.jpg","imgNWTK/FindOutNow.jpg","info","eq","2.81","","44","1","1","95","null","imgNWTK/KeepItSecret.jpg","imgNWTK/FindOutNow.jpg","imgNWTK/KeepItSecret.jpg","NaN","NaN","","",""
"521","","","bandit-task-exp6","54","1278865","0.0-8.0-0.14","female","18","Australia","49960","24981","neither","neither","imgNWTK/KeepItSecret.jpg","imgNWTK/FindOutNow.jpg","info","eq","2.81","","45","2","1","0","null","imgNWTK/KeepItSecret.jpg","imgNWTK/FindOutNow.jpg","imgNWTK/FindOutNow.jpg","NaN","NaN","","",""
"null","<p><b> Congratulations, you have finished this block. </b> </p><p>Please take a short break before moving onto the next block.</p><p>The next block will start after a 15 second break.</p><b>Remember, the point rewards are the same between blocks","","html-keyboard-response","55","1293878","0.0-9.0","female","18","Australia","49960","24981","neither","neither","imgNWTK/KeepItSecret.jpg","imgNWTK/FindOutNow.jpg","info","eq","2.81","","","","","","","","","","","","null","",""
"30180","","","bandit-task-exp6","56","1346998","0.0-10.0-0.0","female","18","Australia","49960","24981","neither","neither","imgNWTK/KeepItSecret.jpg","imgNWTK/FindOutNow.jpg","info","eq","2.81","","46","2","1","0","null","imgNWTK/FindOutNow.jpg","imgNWTK/KeepItSecret.jpg","imgNWTK/FindOutNow.jpg","50","50","","",""
"25438","","","bandit-task-exp6","57","1402746","0.0-10.0-0.1","female","18","Australia","49960","24981","neither","neither","imgNWTK/KeepItSecret.jpg","imgNWTK/FindOutNow.jpg","info","eq","2.81","","47","2","2","95","null","imgNWTK/KeepItSecret.jpg","imgNWTK/FindOutNow.jpg","imgNWTK/FindOutNow.jpg","69","96","","",""
"8568","","","bandit-task-exp6","58","1434403","0.0-10.0-0.2","female","18","Australia","49960","24981","neither","neither","imgNWTK/KeepItSecret.jpg","imgNWTK/FindOutNow.jpg","info","eq","2.81","","48","1","1","102","null","imgNWTK/FindOutNow.jpg","imgNWTK/KeepItSecret.jpg","imgNWTK/KeepItSecret.jpg","95","50","","",""
"6943","","","bandit-task-exp6","59","1464755","0.0-10.0-0.3","female","18","Australia","49960","24981","neither","neither","imgNWTK/KeepItSecret.jpg","imgNWTK/FindOutNow.jpg","info","eq","2.81","","49","1","2","0","null","imgNWTK/KeepItSecret.jpg","imgNWTK/FindOutNow.jpg","imgNWTK/KeepItSecret.jpg","240","60","","",""
"8905","","","bandit-task-exp6","60","1496647","0.0-10.0-0.4","female","18","Australia","49960","24981","neither","neither","imgNWTK/KeepItSecret.jpg","imgNWTK/FindOutNow.jpg","info","eq","2.81","","50","2","2","97","null","imgNWTK/KeepItSecret.jpg","imgNWTK/FindOutNow.jpg","imgNWTK/FindOutNow.jpg","68","285","","",""
"9397","","","bandit-task-exp6","61","1536749","0.0-10.0-0.5","female","18","Australia","49960","24981","neither","neither","imgNWTK/KeepItSecret.jpg","imgNWTK/FindOutNow.jpg","info","eq","2.81","","51","2","1","0","null","imgNWTK/FindOutNow.jpg","imgNWTK/KeepItSecret.jpg","imgNWTK/FindOutNow.jpg","120","95","","",""
"9195","","","bandit-task-exp6","62","1572034","0.0-10.0-0.6","female","18","Australia","49960","24981","neither","neither","imgNWTK/KeepItSecret.jpg","imgNWTK/FindOutNow.jpg","info","eq","2.81","","52","1","1","109","null","imgNWTK/FindOutNow.jpg","imgNWTK/KeepItSecret.jpg","imgNWTK/KeepItSecret.jpg","95","85","","",""
"6319","","","bandit-task-exp6","63","1602165","0.0-10.0-0.7","female","18","Australia","49960","24981","neither","neither","imgNWTK/KeepItSecret.jpg","imgNWTK/FindOutNow.jpg","info","eq","2.81","","53","1","1","105","null","imgNWTK/KeepItSecret.jpg","imgNWTK/FindOutNow.jpg","imgNWTK/KeepItSecret.jpg","193","53","","",""
"5445","","","bandit-task-exp6","64","1629825","0.0-10.0-0.8","female","18","Australia","49960","24981","neither","neither","imgNWTK/KeepItSecret.jpg","imgNWTK/FindOutNow.jpg","info","eq","2.81","","54","2","2","91","null","imgNWTK/FindOutNow.jpg","imgNWTK/KeepItSecret.jpg","imgNWTK/FindOutNow.jpg","36","36","","",""
"9524","","","bandit-task-exp6","65","1662132","0.0-10.0-0.9","female","18","Australia","49960","24981","neither","neither","imgNWTK/KeepItSecret.jpg","imgNWTK/FindOutNow.jpg","info","eq","2.81","","55","1","2","0","null","imgNWTK/KeepItSecret.jpg","imgNWTK/FindOutNow.jpg","imgNWTK/KeepItSecret.jpg","86","62","","",""
"6936","","","bandit-task-exp6","66","1703964","0.0-10.0-0.10","female","18","Australia","49960","24981","neither","neither","imgNWTK/KeepItSecret.jpg","imgNWTK/FindOutNow.jpg","info","eq","2.81","","56","1","1","104","null","imgNWTK/KeepItSecret.jpg","imgNWTK/FindOutNow.jpg","imgNWTK/KeepItSecret.jpg","58","86","","",""
"6808","","","bandit-task-exp6","67","1733728","0.0-10.0-0.11","female","18","Australia","49960","24981","neither","neither","imgNWTK/KeepItSecret.jpg","imgNWTK/FindOutNow.jpg","info","eq","2.81","","57","2","2","107","null","imgNWTK/KeepItSecret.jpg","imgNWTK/FindOutNow.jpg","imgNWTK/FindOutNow.jpg","155","239","","",""
"5318","","","bandit-task-exp6","68","1762066","0.0-10.0-0.12","female","18","Australia","49960","24981","neither","neither","imgNWTK/KeepItSecret.jpg","imgNWTK/FindOutNow.jpg","info","eq","2.81","","58","2","1","0","null","imgNWTK/KeepItSecret.jpg","imgNWTK/FindOutNow.jpg","imgNWTK/FindOutNow.jpg","242","193","","",""
"8558","","","bandit-task-exp6","69","1797060","0.0-10.0-0.13","female","18","Australia","49960","24981","neither","neither","imgNWTK/KeepItSecret.jpg","imgNWTK/FindOutNow.jpg","info","eq","2.81","","59","2","2","91","null","imgNWTK/KeepItSecret.jpg","imgNWTK/FindOutNow.jpg","imgNWTK/FindOutNow.jpg","34","158","","",""
"7410","","","bandit-task-exp6","70","1835058","0.0-10.0-0.14","female","18","Australia","49960","24981","neither","neither","imgNWTK/KeepItSecret.jpg","imgNWTK/FindOutNow.jpg","info","eq","2.81","","60","2","2","100","null","imgNWTK/KeepItSecret.jpg","imgNWTK/FindOutNow.jpg","imgNWTK/FindOutNow.jpg","75","197","","",""
"3445","<p> Congratulations, you have finished the main part of the experiment. </p><p>Before you finish, we have a few short questions about the options and outcomes you saw in the task.</p>","0","html-button-response","71","1838508","0.0-11.0","female","18","Australia","49960","24981","neither","neither","imgNWTK/KeepItSecret.jpg","imgNWTK/FindOutNow.jpg","info","eq","2.81","","","","","","","","","","","","","",""
"13700","<p><b>Now, imagine that you clicked on the below button for another 10 trials (this includes <i> BOTH WIN and NO-WIN trials</i>).</p> <img src= 'imgNWTK/KeepItSecret.jpg'></img></br></br> <p><b>Please type the reward (number of points) you would expect to receive on every trial.</br> Click start to begin.</p>","0","html-button-response","72","1852209","0.0-12.0","female","18","Australia","49960","24981","neither","neither","imgNWTK/KeepItSecret.jpg","imgNWTK/FindOutNow.jpg","info","eq","2.81","","","","","","","","","","","","","",""
"3457.399999976158","","","survey-number","73","1855671","0.0-13.0-0.0","female","18","Australia","49960","24981","neither","neither","imgNWTK/KeepItSecret.jpg","imgNWTK/FindOutNow.jpg","info","eq","2.81","{""undefined"":""95""}","","","","","","","","","","","","imgNWTK/KeepItSecret.jpg",""
"2303","","","survey-number","74","1857979","0.0-13.0-0.1","female","18","Australia","49960","24981","neither","neither","imgNWTK/KeepItSecret.jpg","imgNWTK/FindOutNow.jpg","info","eq","2.81","{""undefined"":""105""}","","","","","","","","","","","","imgNWTK/KeepItSecret.jpg",""
"771.6999999880791","","","survey-number","75","1858755","0.0-13.0-0.2","female","18","Australia","49960","24981","neither","neither","imgNWTK/KeepItSecret.jpg","imgNWTK/FindOutNow.jpg","info","eq","2.81","{""undefined"":""25""}","","","","","","","","","","","","imgNWTK/KeepItSecret.jpg",""
"1313.699999988079","","","survey-number","76","1860073","0.0-13.0-0.3","female","18","Australia","49960","24981","neither","neither","imgNWTK/KeepItSecret.jpg","imgNWTK/FindOutNow.jpg","info","eq","2.81","{""undefined"":""53""}","","","","","","","","","","","","imgNWTK/KeepItSecret.jpg",""
"452.19999998807907","","","survey-number","77","1860528","0.0-13.0-0.4","female","18","Australia","49960","24981","neither","neither","imgNWTK/KeepItSecret.jpg","imgNWTK/FindOutNow.jpg","info","eq","2.81","{""undefined"":""0""}","","","","","","","","","","","","imgNWTK/KeepItSecret.jpg",""
"256.30000001192093","","","survey-number","78","1860789","0.0-13.0-0.5","female","18","Australia","49960","24981","neither","neither","imgNWTK/KeepItSecret.jpg","imgNWTK/FindOutNow.jpg","info","eq","2.81","{""undefined"":""0""}","","","","","","","","","","","","imgNWTK/KeepItSecret.jpg",""
"1070","","","survey-number","79","1861863","0.0-13.0-0.6","female","18","Australia","49960","24981","neither","neither","imgNWTK/KeepItSecret.jpg","imgNWTK/FindOutNow.jpg","info","eq","2.81","{""undefined"":""25""}","","","","","","","","","","","","imgNWTK/KeepItSecret.jpg",""
"1017.6000000238419","","","survey-number","80","1862885","0.0-13.0-0.7","female","18","Australia","49960","24981","neither","neither","imgNWTK/KeepItSecret.jpg","imgNWTK/FindOutNow.jpg","info","eq","2.81","{""undefined"":""95""}","","","","","","","","","","","","imgNWTK/KeepItSecret.jpg",""
"384","","","survey-number","81","1863274","0.0-13.0-0.8","female","18","Australia","49960","24981","neither","neither","imgNWTK/KeepItSecret.jpg","imgNWTK/FindOutNow.jpg","info","eq","2.81","{""undefined"":""0""}","","","","","","","","","","","","imgNWTK/KeepItSecret.jpg",""
"867.6999999880791","","","survey-number","82","1864145","0.0-13.0-0.9","female","18","Australia","49960","24981","neither","neither","imgNWTK/KeepItSecret.jpg","imgNWTK/FindOutNow.jpg","info","eq","2.81","{""undefined"":""0""}","","","","","","","","","","","","imgNWTK/KeepItSecret.jpg",""
"1700","<p><b>Imagine that you clicked on the below button for another 10 trials (this includes <i> both WIN and NO-WIN trials</i>).</p> <img src= 'imgNWTK/FindOutNow.jpg'></img></br></br> <p><b>Please type the reward (number of points) you would expect to receive on every trial.</br> Click start to begin.</p>","0","html-button-response","83","1865848","0.0-14.0","female","18","Australia","49960","24981","neither","neither","imgNWTK/KeepItSecret.jpg","imgNWTK/FindOutNow.jpg","info","eq","2.81","","","","","","","","","","","","","",""
"1374.5","","","survey-number","84","1867229","0.0-15.0-0.0","female","18","Australia","49960","24981","neither","neither","imgNWTK/KeepItSecret.jpg","imgNWTK/FindOutNow.jpg","info","eq","2.81","{""undefined"":""0""}","","","","","","","","","","","","imgNWTK/FindOutNow.jpg",""
"935.4000000357628","","","survey-number","85","1868167","0.0-15.0-0.1","female","18","Australia","49960","24981","neither","neither","imgNWTK/KeepItSecret.jpg","imgNWTK/FindOutNow.jpg","info","eq","2.81","{""undefined"":""95""}","","","","","","","","","","","","imgNWTK/FindOutNow.jpg",""
"653.8999999761581","","","survey-number","86","1868825","0.0-15.0-0.2","female","18","Australia","49960","24981","neither","neither","imgNWTK/KeepItSecret.jpg","imgNWTK/FindOutNow.jpg","info","eq","2.81","{""undefined"":""0""}","","","","","","","","","","","","imgNWTK/FindOutNow.jpg",""
"251.10000002384186","","","survey-number","87","1869081","0.0-15.0-0.3","female","18","Australia","49960","24981","neither","neither","imgNWTK/KeepItSecret.jpg","imgNWTK/FindOutNow.jpg","info","eq","2.81","{""undefined"":""0""}","","","","","","","","","","","","imgNWTK/FindOutNow.jpg",""
"276.0999999642372","","","survey-number","88","1869362","0.0-15.0-0.4","female","18","Australia","49960","24981","neither","neither","imgNWTK/KeepItSecret.jpg","imgNWTK/FindOutNow.jpg","info","eq","2.81","{""undefined"":""0""}","","","","","","","","","","","","imgNWTK/FindOutNow.jpg",""
"262","","","survey-number","89","1869629","0.0-15.0-0.5","female","18","Australia","49960","24981","neither","neither","imgNWTK/KeepItSecret.jpg","imgNWTK/FindOutNow.jpg","info","eq","2.81","{""undefined"":""0""}","","","","","","","","","","","","imgNWTK/FindOutNow.jpg",""
"574.9000000357628","","","survey-number","90","1870208","0.0-15.0-0.6","female","18","Australia","49960","24981","neither","neither","imgNWTK/KeepItSecret.jpg","imgNWTK/FindOutNow.jpg","info","eq","2.81","{""undefined"":""105""}","","","","","","","","","","","","imgNWTK/FindOutNow.jpg",""
"2248.899999976158","","","survey-number","91","1872461","0.0-15.0-0.7","female","18","Australia","49960","24981","neither","neither","imgNWTK/KeepItSecret.jpg","imgNWTK/FindOutNow.jpg","info","eq","2.81","{""undefined"":""30""}","","","","","","","","","","","","imgNWTK/FindOutNow.jpg",""
"502.7999999523163","","","survey-number","92","1872968","0.0-15.0-0.8","female","18","Australia","49960","24981","neither","neither","imgNWTK/KeepItSecret.jpg","imgNWTK/FindOutNow.jpg","info","eq","2.81","{""undefined"":""0""}","","","","","","","","","","","","imgNWTK/FindOutNow.jpg",""
"1335.8999999761581","","","survey-number","93","1874308","0.0-15.0-0.9","female","18","Australia","49960","24981","neither","neither","imgNWTK/KeepItSecret.jpg","imgNWTK/FindOutNow.jpg","info","eq","2.81","{""undefined"":""55""}","","","","","","","","","","","","imgNWTK/FindOutNow.jpg",""
"6269.300000011921","","","survey-number","94","1880596","0.0-16.0","female","18","Australia","49960","24981","neither","neither","imgNWTK/KeepItSecret.jpg","imgNWTK/FindOutNow.jpg","info","eq","2.81","{""undefined"":""50""}","","","","","","","","","","","","","imgNWTK/FindOutNow.jpg"
"838.8999999761581","","","survey-number","95","1881438","0.0-17.0","female","18","Australia","49960","24981","neither","neither","imgNWTK/KeepItSecret.jpg","imgNWTK/FindOutNow.jpg","info","eq","2.81","{""undefined"":""50""}","","","","","","","","","","","","","imgNWTK/KeepItSecret.jpg"
"18775","<p style=""text-align:left;"">Great! We are almost at the end of the study... (Please do not close the browser window yet.)</p><p> Your final points balance is 2813, which equals to a bonus payment of $2.81. Please collect your payment from Mathews Building Room 721 (Mon-Fri 9am-5pm); please email amy.x.li@unsw.edu.au at least 24 hours prior to collection so that this is ready for you.</p><p style=""text-align:left;"">To view the debriefing form, please click <a href=""./imgNWTK/debrief_3205.pdf"" target=""_blank"">here</a> to download a copy.</p><p style=""text-align:left;"">Then, <b>please click the below button</b> to confirm that you have received your debrief and to complete the study. Upon clicking ""Finish!"", your SONA credit will be automatically assigned.</p>","0","html-button-response","96","1900216","0.0-18.0","female","18","Australia","49960","24981","neither","neither","imgNWTK/KeepItSecret.jpg","imgNWTK/FindOutNow.jpg","info","eq","2.81","","","","","","","","","","","","","",""
