"rt","stimulus","button_pressed","trial_type","trial_index","time_elapsed","internal_node_id","gender","age","language","PID","sona_id","subStim","optStim","stim1","stim2","infoCond","optimCond","bonus","responses","banditTrial","choice","cue","feedback","estimateData","leftOption","rightOption","choiceName","leftInput","rightInput","key_press","postQ","singleEst"
"1809","<p>Thank you for signing up to participate in SONA Study 465! <br> During this study, please focus on the experiment and refrain from activities such as:</p>- <b>Switching to other tabs on your browser (this will be monitored via the experiment)</br> - Using your mobile phone/cell phone</br> - Communicating with others</br></br></b><p>This way, you are helping to provide data that is useful for psychological research. We thank you for your cooperation!</p>","0","html-button-response","0","1813","0.0-0.0","female","19","Australia","67888","26061","neither","neither","imgNWTK/KeepItSecret.jpg","imgNWTK/FindOutNow.jpg","info","eq","2.82","","","","","","","","","","","","","",""
"1280","<p>Welcome to the experiment!</p><p>You will now read some instructions about the task. Press the 'Next' button to continue. </p>","0","html-button-response","1","3096","0.0-1.0","female","19","Australia","67888","26061","neither","neither","imgNWTK/KeepItSecret.jpg","imgNWTK/FindOutNow.jpg","info","eq","2.82","","","","","","","","","","","","","",""
"4864","<p> On each trial throughout the experiment you will choose between the options </br><b> Find Out Now </b> and <b> Keep It Secret </b>, as shown below.</p><div><div style= 'float: left; width: 300px; margin: 10px 10px;'><img src= 'imgNWTK/KeepItSecret.jpg'></img></div><div style= 'float: right; width: 300px; margin: 10px 10px;'><img src= 'imgNWTK/FindOutNow.jpg'></img></div></div><br/><br/><br/><br/><br/><br/><br/><br/><br/><br/><br/><p>Each option results in winning points or receiving 0 points.</br>There is a 50% chance of either winning or receiving 0 points.</p><p>You won't receive the outcome until after a <b> 20 second delay</b>. However, selecting the Find Out Now option will allow you to find out about the outcome early, whereas the Keep It Secret option will not. </p>","0","html-button-response","2","7962","0.0-2.0-0.0","female","19","Australia","67888","26061","neither","neither","imgNWTK/KeepItSecret.jpg","imgNWTK/FindOutNow.jpg","info","eq","2.82","","","","","","","","","","","","","",""
"6798","<img src= 'cues/Experiment6.png'></img><p>As seen above, when choosing the <b>'Find Out Now'</b> option, you will receive either a happy face or sad face.</br>The happy face means you will win points after the delay, whereas the sad face means you will receive 0 points.</br></p><p> When choosing the <b> 'Keep it Secret' </b> option you will receive a confused face.</br> This face appears regardless of whether you are going to win points or not. </p>In short, choosing 'Find Out Now' allows you to find out the outcome before you experience it (after the delay).</br></br>","0","html-button-response","3","14762","0.0-2.0-1.0","female","19","Australia","67888","26061","neither","neither","imgNWTK/KeepItSecret.jpg","imgNWTK/FindOutNow.jpg","info","eq","2.82","","","","","","","","","","","","","",""
"1513","<img src= 'cues/winTrials_info.png' width = '1200'></img><p>To reiterate, 50% of the outcomes of each option will be WIN TRIALS, and the other 50% will be NO-WIN TRIALS.","0","html-button-response","4","16279","0.0-2.0-2.0","female","19","Australia","67888","26061","neither","neither","imgNWTK/KeepItSecret.jpg","imgNWTK/FindOutNow.jpg","info","eq","2.82","","","","","","","","","","","","","",""
"2114","<p> There will be <b>four blocks</b> in the experiment.</br>You will be given a short 15 second break between each block.</p><p><b>The points and the options will remain the same between the blocks.</b></p>The blocks are there just to give you a small break.</br></br><p>The points you earn in the task are also equal to <b> actual money</b>.</br> <b>1000 points is equal to $1.</b></p><p>This is the rate you will be paid at the experiment's end.","0","html-button-response","5","18396","0.0-2.0-3.0","female","19","Australia","67888","26061","neither","neither","imgNWTK/KeepItSecret.jpg","imgNWTK/FindOutNow.jpg","info","eq","2.82","","","","","","","","","","","","","",""
"11241","","","survey-multi-choice","6","29647","0.0-2.0-4.0","female","19","Australia","67888","26061","neither","neither","imgNWTK/KeepItSecret.jpg","imgNWTK/FindOutNow.jpg","info","eq","2.82","{""Q0"":""20 Seconds"",""Q1"":""True"",""Q2"":""Differently"",""Q3"":""True""}","","","","","","","","","","","","",""
"1360","Unfortunately, at least one of your answers was incorrect. Let's read the instructions again.<p> ","0","html-button-response","7","31012","0.0-2.0-5.0-0.0","female","19","Australia","67888","26061","neither","neither","imgNWTK/KeepItSecret.jpg","imgNWTK/FindOutNow.jpg","info","eq","2.82","","","","","","","","","","","","","",""
"3663","<p> On each trial throughout the experiment you will choose between the options </br><b> Find Out Now </b> and <b> Keep It Secret </b>, as shown below.</p><div><div style= 'float: left; width: 300px; margin: 10px 10px;'><img src= 'imgNWTK/KeepItSecret.jpg'></img></div><div style= 'float: right; width: 300px; margin: 10px 10px;'><img src= 'imgNWTK/FindOutNow.jpg'></img></div></div><br/><br/><br/><br/><br/><br/><br/><br/><br/><br/><br/><p>Each option results in winning points or receiving 0 points.</br>There is a 50% chance of either winning or receiving 0 points.</p><p>You won't receive the outcome until after a <b> 20 second delay</b>. However, selecting the Find Out Now option will allow you to find out about the outcome early, whereas the Keep It Secret option will not. </p>","0","html-button-response","8","34679","0.0-2.1-0.1","female","19","Australia","67888","26061","neither","neither","imgNWTK/KeepItSecret.jpg","imgNWTK/FindOutNow.jpg","info","eq","2.82","","","","","","","","","","","","","",""
"8581","<img src= 'cues/Experiment6.png'></img><p>As seen above, when choosing the <b>'Find Out Now'</b> option, you will receive either a happy face or sad face.</br>The happy face means you will win points after the delay, whereas the sad face means you will receive 0 points.</br></p><p> When choosing the <b> 'Keep it Secret' </b> option you will receive a confused face.</br> This face appears regardless of whether you are going to win points or not. </p>In short, choosing 'Find Out Now' allows you to find out the outcome before you experience it (after the delay).</br></br>","0","html-button-response","9","43262","0.0-2.1-1.1","female","19","Australia","67888","26061","neither","neither","imgNWTK/KeepItSecret.jpg","imgNWTK/FindOutNow.jpg","info","eq","2.82","","","","","","","","","","","","","",""
"3631","<img src= 'cues/winTrials_info.png' width = '1200'></img><p>To reiterate, 50% of the outcomes of each option will be WIN TRIALS, and the other 50% will be NO-WIN TRIALS.","0","html-button-response","10","46895","0.0-2.1-2.1","female","19","Australia","67888","26061","neither","neither","imgNWTK/KeepItSecret.jpg","imgNWTK/FindOutNow.jpg","info","eq","2.82","","","","","","","","","","","","","",""
"5465","<p> There will be <b>four blocks</b> in the experiment.</br>You will be given a short 15 second break between each block.</p><p><b>The points and the options will remain the same between the blocks.</b></p>The blocks are there just to give you a small break.</br></br><p>The points you earn in the task are also equal to <b> actual money</b>.</br> <b>1000 points is equal to $1.</b></p><p>This is the rate you will be paid at the experiment's end.","0","html-button-response","11","52363","0.0-2.1-3.1","female","19","Australia","67888","26061","neither","neither","imgNWTK/KeepItSecret.jpg","imgNWTK/FindOutNow.jpg","info","eq","2.82","","","","","","","","","","","","","",""
"21878","","","survey-multi-choice","12","74247","0.0-2.1-4.1","female","19","Australia","67888","26061","neither","neither","imgNWTK/KeepItSecret.jpg","imgNWTK/FindOutNow.jpg","info","eq","2.82","{""Q0"":""20 Seconds"",""Q1"":""True"",""Q2"":""Equally"",""Q3"":""True""}","","","","","","","","","","","","",""
"1428","<p> Well done, all your answers were correct! <br> The experiment is about to start now. <br/> Click start to continue, or email your researcher <b>(amy.x.li@unsw.edu.au)</b> if you have any questions before starting.","0","html-button-response","13","75679","0.0-3.0","female","19","Australia","67888","26061","neither","neither","imgNWTK/KeepItSecret.jpg","imgNWTK/FindOutNow.jpg","info","eq","2.82","","","","","","","","","","","","","",""
"4025","","","bandit-task-exp6","14","102396","0.0-4.0-0.0","female","19","Australia","67888","26061","neither","neither","imgNWTK/KeepItSecret.jpg","imgNWTK/FindOutNow.jpg","info","eq","2.82","","1","1","2","0","null","imgNWTK/KeepItSecret.jpg","imgNWTK/FindOutNow.jpg","imgNWTK/KeepItSecret.jpg","NaN","NaN","","",""
"2375","","","bandit-task-exp6","15","127179","0.0-4.0-0.1","female","19","Australia","67888","26061","neither","neither","imgNWTK/KeepItSecret.jpg","imgNWTK/FindOutNow.jpg","info","eq","2.82","","2","2","1","0","null","imgNWTK/FindOutNow.jpg","imgNWTK/KeepItSecret.jpg","imgNWTK/FindOutNow.jpg","NaN","NaN","","",""
"5277","","","bandit-task-exp6","16","154879","0.0-4.0-0.2","female","19","Australia","67888","26061","neither","neither","imgNWTK/KeepItSecret.jpg","imgNWTK/FindOutNow.jpg","info","eq","2.82","","3","1","1","99","null","imgNWTK/KeepItSecret.jpg","imgNWTK/FindOutNow.jpg","imgNWTK/KeepItSecret.jpg","NaN","NaN","","",""
"3212","","","bandit-task-exp6","17","180446","0.0-4.0-0.3","female","19","Australia","67888","26061","neither","neither","imgNWTK/KeepItSecret.jpg","imgNWTK/FindOutNow.jpg","info","eq","2.82","","4","1","2","0","null","imgNWTK/KeepItSecret.jpg","imgNWTK/FindOutNow.jpg","imgNWTK/KeepItSecret.jpg","NaN","NaN","","",""
"4862","","","bandit-task-exp6","18","207979","0.0-4.0-0.4","female","19","Australia","67888","26061","neither","neither","imgNWTK/KeepItSecret.jpg","imgNWTK/FindOutNow.jpg","info","eq","2.82","","5","1","1","101","null","imgNWTK/FindOutNow.jpg","imgNWTK/KeepItSecret.jpg","imgNWTK/KeepItSecret.jpg","NaN","NaN","","",""
"728","","","bandit-task-exp6","19","231762","0.0-4.0-0.5","female","19","Australia","67888","26061","neither","neither","imgNWTK/KeepItSecret.jpg","imgNWTK/FindOutNow.jpg","info","eq","2.82","","6","1","1","94","null","imgNWTK/FindOutNow.jpg","imgNWTK/KeepItSecret.jpg","imgNWTK/KeepItSecret.jpg","NaN","NaN","","",""
"1878","","","bandit-task-exp6","20","256445","0.0-4.0-0.6","female","19","Australia","67888","26061","neither","neither","imgNWTK/KeepItSecret.jpg","imgNWTK/FindOutNow.jpg","info","eq","2.82","","7","2","2","107","null","imgNWTK/KeepItSecret.jpg","imgNWTK/FindOutNow.jpg","imgNWTK/FindOutNow.jpg","NaN","NaN","","",""
"9029","","","bandit-task-exp6","21","288761","0.0-4.0-0.7","female","19","Australia","67888","26061","neither","neither","imgNWTK/KeepItSecret.jpg","imgNWTK/FindOutNow.jpg","info","eq","2.82","","8","2","1","0","null","imgNWTK/FindOutNow.jpg","imgNWTK/KeepItSecret.jpg","imgNWTK/FindOutNow.jpg","NaN","NaN","","",""
"1095","","","bandit-task-exp6","22","312545","0.0-4.0-0.8","female","19","Australia","67888","26061","neither","neither","imgNWTK/KeepItSecret.jpg","imgNWTK/FindOutNow.jpg","info","eq","2.82","","9","1","2","0","null","imgNWTK/FindOutNow.jpg","imgNWTK/KeepItSecret.jpg","imgNWTK/KeepItSecret.jpg","NaN","NaN","","",""
"1211","","","bandit-task-exp6","23","336412","0.0-4.0-0.9","female","19","Australia","67888","26061","neither","neither","imgNWTK/KeepItSecret.jpg","imgNWTK/FindOutNow.jpg","info","eq","2.82","","10","2","2","101","null","imgNWTK/FindOutNow.jpg","imgNWTK/KeepItSecret.jpg","imgNWTK/FindOutNow.jpg","NaN","NaN","","",""
"812","","","bandit-task-exp6","24","360578","0.0-4.0-0.10","female","19","Australia","67888","26061","neither","neither","imgNWTK/KeepItSecret.jpg","imgNWTK/FindOutNow.jpg","info","eq","2.82","","11","2","2","100","null","imgNWTK/FindOutNow.jpg","imgNWTK/KeepItSecret.jpg","imgNWTK/FindOutNow.jpg","NaN","NaN","","",""
"612","","","bandit-task-exp6","25","385695","0.0-4.0-0.11","female","19","Australia","67888","26061","neither","neither","imgNWTK/KeepItSecret.jpg","imgNWTK/FindOutNow.jpg","info","eq","2.82","","12","2","2","109","null","imgNWTK/FindOutNow.jpg","imgNWTK/KeepItSecret.jpg","imgNWTK/FindOutNow.jpg","NaN","NaN","","",""
"5446","","","bandit-task-exp6","26","413345","0.0-4.0-0.12","female","19","Australia","67888","26061","neither","neither","imgNWTK/KeepItSecret.jpg","imgNWTK/FindOutNow.jpg","info","eq","2.82","","13","1","1","91","null","imgNWTK/FindOutNow.jpg","imgNWTK/KeepItSecret.jpg","imgNWTK/KeepItSecret.jpg","NaN","NaN","","",""
"728","","","bandit-task-exp6","27","441344","0.0-4.0-0.13","female","19","Australia","67888","26061","neither","neither","imgNWTK/KeepItSecret.jpg","imgNWTK/FindOutNow.jpg","info","eq","2.82","","14","2","1","0","null","imgNWTK/FindOutNow.jpg","imgNWTK/KeepItSecret.jpg","imgNWTK/FindOutNow.jpg","NaN","NaN","","",""
"3729","","","bandit-task-exp6","28","470011","0.0-4.0-0.14","female","19","Australia","67888","26061","neither","neither","imgNWTK/KeepItSecret.jpg","imgNWTK/FindOutNow.jpg","info","eq","2.82","","15","2","2","108","null","imgNWTK/KeepItSecret.jpg","imgNWTK/FindOutNow.jpg","imgNWTK/FindOutNow.jpg","NaN","NaN","","",""
"null","<p><b> Congratulations, you have finished this block. </b> </p><p>Please take a short break before moving onto the next block.</p><p>The next block will start after a 15 second break.</p><b>Remember, the point rewards are the same between blocks","","html-keyboard-response","29","485019","0.0-5.0","female","19","Australia","67888","26061","neither","neither","imgNWTK/KeepItSecret.jpg","imgNWTK/FindOutNow.jpg","info","eq","2.82","","","","","","","","","","","","null","",""
"1453","","","bandit-task-exp6","30","508998","0.0-6.0-0.0","female","19","Australia","67888","26061","neither","neither","imgNWTK/KeepItSecret.jpg","imgNWTK/FindOutNow.jpg","info","eq","2.82","","16","1","2","0","null","imgNWTK/FindOutNow.jpg","imgNWTK/KeepItSecret.jpg","imgNWTK/KeepItSecret.jpg","NaN","NaN","","",""
"762","","","bandit-task-exp6","31","532071","0.0-6.0-0.1","female","19","Australia","67888","26061","neither","neither","imgNWTK/KeepItSecret.jpg","imgNWTK/FindOutNow.jpg","info","eq","2.82","","17","1","2","0","null","imgNWTK/FindOutNow.jpg","imgNWTK/KeepItSecret.jpg","imgNWTK/KeepItSecret.jpg","NaN","NaN","","",""
"628","","","bandit-task-exp6","32","556123","0.0-6.0-0.2","female","19","Australia","67888","26061","neither","neither","imgNWTK/KeepItSecret.jpg","imgNWTK/FindOutNow.jpg","info","eq","2.82","","18","2","2","98","null","imgNWTK/FindOutNow.jpg","imgNWTK/KeepItSecret.jpg","imgNWTK/FindOutNow.jpg","NaN","NaN","","",""
"1113","","","bandit-task-exp6","33","581539","0.0-6.0-0.3","female","19","Australia","67888","26061","neither","neither","imgNWTK/KeepItSecret.jpg","imgNWTK/FindOutNow.jpg","info","eq","2.82","","19","2","2","99","null","imgNWTK/FindOutNow.jpg","imgNWTK/KeepItSecret.jpg","imgNWTK/FindOutNow.jpg","NaN","NaN","","",""
"4012","","","bandit-task-exp6","34","608374","0.0-6.0-0.4","female","19","Australia","67888","26061","neither","neither","imgNWTK/KeepItSecret.jpg","imgNWTK/FindOutNow.jpg","info","eq","2.82","","20","2","2","106","null","imgNWTK/KeepItSecret.jpg","imgNWTK/FindOutNow.jpg","imgNWTK/FindOutNow.jpg","NaN","NaN","","",""
"1645","","","bandit-task-exp6","35","632639","0.0-6.0-0.5","female","19","Australia","67888","26061","neither","neither","imgNWTK/KeepItSecret.jpg","imgNWTK/FindOutNow.jpg","info","eq","2.82","","21","2","1","0","null","imgNWTK/FindOutNow.jpg","imgNWTK/KeepItSecret.jpg","imgNWTK/FindOutNow.jpg","NaN","NaN","","",""
"630","","","bandit-task-exp6","36","655489","0.0-6.0-0.6","female","19","Australia","67888","26061","neither","neither","imgNWTK/KeepItSecret.jpg","imgNWTK/FindOutNow.jpg","info","eq","2.82","","22","1","2","0","null","imgNWTK/FindOutNow.jpg","imgNWTK/KeepItSecret.jpg","imgNWTK/KeepItSecret.jpg","NaN","NaN","","",""
"629","","","bandit-task-exp6","37","678972","0.0-6.0-0.7","female","19","Australia","67888","26061","neither","neither","imgNWTK/KeepItSecret.jpg","imgNWTK/FindOutNow.jpg","info","eq","2.82","","23","1","2","0","null","imgNWTK/KeepItSecret.jpg","imgNWTK/FindOutNow.jpg","imgNWTK/KeepItSecret.jpg","NaN","NaN","","",""
"2196","","","bandit-task-exp6","38","704007","0.0-6.0-0.8","female","19","Australia","67888","26061","neither","neither","imgNWTK/KeepItSecret.jpg","imgNWTK/FindOutNow.jpg","info","eq","2.82","","24","2","1","0","null","imgNWTK/FindOutNow.jpg","imgNWTK/KeepItSecret.jpg","imgNWTK/FindOutNow.jpg","NaN","NaN","","",""
"745","","","bandit-task-exp6","39","726573","0.0-6.0-0.9","female","19","Australia","67888","26061","neither","neither","imgNWTK/KeepItSecret.jpg","imgNWTK/FindOutNow.jpg","info","eq","2.82","","25","1","2","0","null","imgNWTK/FindOutNow.jpg","imgNWTK/KeepItSecret.jpg","imgNWTK/KeepItSecret.jpg","NaN","NaN","","",""
"2512","","","bandit-task-exp6","40","754490","0.0-6.0-0.10","female","19","Australia","67888","26061","neither","neither","imgNWTK/KeepItSecret.jpg","imgNWTK/FindOutNow.jpg","info","eq","2.82","","26","2","1","0","null","imgNWTK/FindOutNow.jpg","imgNWTK/KeepItSecret.jpg","imgNWTK/FindOutNow.jpg","NaN","NaN","","",""
"2712","","","bandit-task-exp6","41","779557","0.0-6.0-0.11","female","19","Australia","67888","26061","neither","neither","imgNWTK/KeepItSecret.jpg","imgNWTK/FindOutNow.jpg","info","eq","2.82","","27","1","2","0","null","imgNWTK/KeepItSecret.jpg","imgNWTK/FindOutNow.jpg","imgNWTK/KeepItSecret.jpg","NaN","NaN","","",""
"728","","","bandit-task-exp6","42","807489","0.0-6.0-0.12","female","19","Australia","67888","26061","neither","neither","imgNWTK/KeepItSecret.jpg","imgNWTK/FindOutNow.jpg","info","eq","2.82","","28","2","1","0","null","imgNWTK/KeepItSecret.jpg","imgNWTK/FindOutNow.jpg","imgNWTK/FindOutNow.jpg","NaN","NaN","","",""
"10130","","","bandit-task-exp6","43","839373","0.0-6.0-0.13","female","19","Australia","67888","26061","neither","neither","imgNWTK/KeepItSecret.jpg","imgNWTK/FindOutNow.jpg","info","eq","2.82","","29","1","1","94","null","imgNWTK/KeepItSecret.jpg","imgNWTK/FindOutNow.jpg","imgNWTK/KeepItSecret.jpg","NaN","NaN","","",""
"12580","","","bandit-task-exp6","44","881290","0.0-6.0-0.14","female","19","Australia","67888","26061","neither","neither","imgNWTK/KeepItSecret.jpg","imgNWTK/FindOutNow.jpg","info","eq","2.82","","30","2","1","0","null","imgNWTK/FindOutNow.jpg","imgNWTK/KeepItSecret.jpg","imgNWTK/FindOutNow.jpg","NaN","NaN","","",""
"null","<p><b> Congratulations, you have finished this block. </b> </p><p>Please take a short break before moving onto the next block.</p><p>The next block will start after a 15 second break.</p><b>Remember, the point rewards are the same between blocks","","html-keyboard-response","45","896297","0.0-7.0","female","19","Australia","67888","26061","neither","neither","imgNWTK/KeepItSecret.jpg","imgNWTK/FindOutNow.jpg","info","eq","2.82","","","","","","","","","","","","null","",""
"1555","","","bandit-task-exp6","46","920192","0.0-8.0-0.0","female","19","Australia","67888","26061","neither","neither","imgNWTK/KeepItSecret.jpg","imgNWTK/FindOutNow.jpg","info","eq","2.82","","31","2","2","93","null","imgNWTK/FindOutNow.jpg","imgNWTK/KeepItSecret.jpg","imgNWTK/FindOutNow.jpg","NaN","NaN","","",""
"2427","","","bandit-task-exp6","47","950241","0.0-8.0-0.1","female","19","Australia","67888","26061","neither","neither","imgNWTK/KeepItSecret.jpg","imgNWTK/FindOutNow.jpg","info","eq","2.82","","32","2","2","95","null","imgNWTK/KeepItSecret.jpg","imgNWTK/FindOutNow.jpg","imgNWTK/FindOutNow.jpg","NaN","NaN","","",""
"1546","","","bandit-task-exp6","48","974342","0.0-8.0-0.2","female","19","Australia","67888","26061","neither","neither","imgNWTK/KeepItSecret.jpg","imgNWTK/FindOutNow.jpg","info","eq","2.82","","33","1","2","0","null","imgNWTK/KeepItSecret.jpg","imgNWTK/FindOutNow.jpg","imgNWTK/KeepItSecret.jpg","NaN","NaN","","",""
"1027","","","bandit-task-exp6","49","997608","0.0-8.0-0.3","female","19","Australia","67888","26061","neither","neither","imgNWTK/KeepItSecret.jpg","imgNWTK/FindOutNow.jpg","info","eq","2.82","","34","2","2","105","null","imgNWTK/KeepItSecret.jpg","imgNWTK/FindOutNow.jpg","imgNWTK/FindOutNow.jpg","NaN","NaN","","",""
"1228","","","bandit-task-exp6","50","1022123","0.0-8.0-0.4","female","19","Australia","67888","26061","neither","neither","imgNWTK/KeepItSecret.jpg","imgNWTK/FindOutNow.jpg","info","eq","2.82","","35","1","1","99","null","imgNWTK/KeepItSecret.jpg","imgNWTK/FindOutNow.jpg","imgNWTK/KeepItSecret.jpg","NaN","NaN","","",""
"846","","","bandit-task-exp6","51","1053490","0.0-8.0-0.5","female","19","Australia","67888","26061","neither","neither","imgNWTK/KeepItSecret.jpg","imgNWTK/FindOutNow.jpg","info","eq","2.82","","36","2","2","101","null","imgNWTK/KeepItSecret.jpg","imgNWTK/FindOutNow.jpg","imgNWTK/FindOutNow.jpg","NaN","NaN","","",""
"962","","","bandit-task-exp6","52","1078157","0.0-8.0-0.6","female","19","Australia","67888","26061","neither","neither","imgNWTK/KeepItSecret.jpg","imgNWTK/FindOutNow.jpg","info","eq","2.82","","37","1","2","0","null","imgNWTK/FindOutNow.jpg","imgNWTK/KeepItSecret.jpg","imgNWTK/KeepItSecret.jpg","NaN","NaN","","",""
"2262","","","bandit-task-exp6","53","1102307","0.0-8.0-0.7","female","19","Australia","67888","26061","neither","neither","imgNWTK/KeepItSecret.jpg","imgNWTK/FindOutNow.jpg","info","eq","2.82","","38","2","1","0","null","imgNWTK/KeepItSecret.jpg","imgNWTK/FindOutNow.jpg","imgNWTK/FindOutNow.jpg","NaN","NaN","","",""
"1296","","","bandit-task-exp6","54","1128574","0.0-8.0-0.8","female","19","Australia","67888","26061","neither","neither","imgNWTK/KeepItSecret.jpg","imgNWTK/FindOutNow.jpg","info","eq","2.82","","39","2","1","0","null","imgNWTK/FindOutNow.jpg","imgNWTK/KeepItSecret.jpg","imgNWTK/FindOutNow.jpg","NaN","NaN","","",""
"712","","","bandit-task-exp6","55","1152240","0.0-8.0-0.9","female","19","Australia","67888","26061","neither","neither","imgNWTK/KeepItSecret.jpg","imgNWTK/FindOutNow.jpg","info","eq","2.82","","40","2","2","110","null","imgNWTK/KeepItSecret.jpg","imgNWTK/FindOutNow.jpg","imgNWTK/FindOutNow.jpg","NaN","NaN","","",""
"1213","","","bandit-task-exp6","56","1175158","0.0-8.0-0.10","female","19","Australia","67888","26061","neither","neither","imgNWTK/KeepItSecret.jpg","imgNWTK/FindOutNow.jpg","info","eq","2.82","","41","2","1","0","null","imgNWTK/KeepItSecret.jpg","imgNWTK/FindOutNow.jpg","imgNWTK/FindOutNow.jpg","NaN","NaN","","",""
"728","","","bandit-task-exp6","57","1206157","0.0-8.0-0.11","female","19","Australia","67888","26061","neither","neither","imgNWTK/KeepItSecret.jpg","imgNWTK/FindOutNow.jpg","info","eq","2.82","","42","2","2","107","null","imgNWTK/KeepItSecret.jpg","imgNWTK/FindOutNow.jpg","imgNWTK/FindOutNow.jpg","NaN","NaN","","",""
"963","","","bandit-task-exp6","58","1248308","0.0-8.0-0.12","female","19","Australia","67888","26061","neither","neither","imgNWTK/KeepItSecret.jpg","imgNWTK/FindOutNow.jpg","info","eq","2.82","","43","1","2","0","null","imgNWTK/FindOutNow.jpg","imgNWTK/KeepItSecret.jpg","imgNWTK/KeepItSecret.jpg","NaN","NaN","","",""
"944","","","bandit-task-exp6","59","1271241","0.0-8.0-0.13","female","19","Australia","67888","26061","neither","neither","imgNWTK/KeepItSecret.jpg","imgNWTK/FindOutNow.jpg","info","eq","2.82","","44","1","1","97","null","imgNWTK/FindOutNow.jpg","imgNWTK/KeepItSecret.jpg","imgNWTK/KeepItSecret.jpg","NaN","NaN","","",""
"5278","","","bandit-task-exp6","60","1299390","0.0-8.0-0.14","female","19","Australia","67888","26061","neither","neither","imgNWTK/KeepItSecret.jpg","imgNWTK/FindOutNow.jpg","info","eq","2.82","","45","1","1","98","null","imgNWTK/KeepItSecret.jpg","imgNWTK/FindOutNow.jpg","imgNWTK/KeepItSecret.jpg","NaN","NaN","","",""
"null","<p><b> Congratulations, you have finished this block. </b> </p><p>Please take a short break before moving onto the next block.</p><p>The next block will start after a 15 second break.</p><b>Remember, the point rewards are the same between blocks","","html-keyboard-response","61","1314397","0.0-9.0","female","19","Australia","67888","26061","neither","neither","imgNWTK/KeepItSecret.jpg","imgNWTK/FindOutNow.jpg","info","eq","2.82","","","","","","","","","","","","null","",""
"31487","","","bandit-task-exp6","62","1368374","0.0-10.0-0.0","female","19","Australia","67888","26061","neither","neither","imgNWTK/KeepItSecret.jpg","imgNWTK/FindOutNow.jpg","info","eq","2.82","","46","1","2","0","null","imgNWTK/KeepItSecret.jpg","imgNWTK/FindOutNow.jpg","imgNWTK/KeepItSecret.jpg","50","50","","",""
"5877","","","bandit-task-exp6","63","1397875","0.0-10.0-0.1","female","19","Australia","67888","26061","neither","neither","imgNWTK/KeepItSecret.jpg","imgNWTK/FindOutNow.jpg","info","eq","2.82","","47","2","1","0","null","imgNWTK/FindOutNow.jpg","imgNWTK/KeepItSecret.jpg","imgNWTK/FindOutNow.jpg","100","50","","",""
"12412","","","bandit-task-exp6","64","1439793","0.0-10.0-0.2","female","19","Australia","67888","26061","neither","neither","imgNWTK/KeepItSecret.jpg","imgNWTK/FindOutNow.jpg","info","eq","2.82","","48","2","2","96","null","imgNWTK/FindOutNow.jpg","imgNWTK/KeepItSecret.jpg","imgNWTK/FindOutNow.jpg","40","60","","",""
"5726","","","bandit-task-exp6","65","1467713","0.0-10.0-0.3","female","19","Australia","67888","26061","neither","neither","imgNWTK/KeepItSecret.jpg","imgNWTK/FindOutNow.jpg","info","eq","2.82","","49","2","1","0","null","imgNWTK/FindOutNow.jpg","imgNWTK/KeepItSecret.jpg","imgNWTK/FindOutNow.jpg","100","100","","",""
"10829","","","bandit-task-exp6","66","1503599","0.0-10.0-0.4","female","19","Australia","67888","26061","neither","neither","imgNWTK/KeepItSecret.jpg","imgNWTK/FindOutNow.jpg","info","eq","2.82","","50","2","1","0","null","imgNWTK/KeepItSecret.jpg","imgNWTK/FindOutNow.jpg","imgNWTK/FindOutNow.jpg","100","50","","",""
"14311","","","bandit-task-exp6","67","1568050","0.0-10.0-0.5","female","19","Australia","67888","26061","neither","neither","imgNWTK/KeepItSecret.jpg","imgNWTK/FindOutNow.jpg","info","eq","2.82","","51","1","2","0","null","imgNWTK/KeepItSecret.jpg","imgNWTK/FindOutNow.jpg","imgNWTK/KeepItSecret.jpg","50","50","","",""
"6028","","","bandit-task-exp6","68","1595466","0.0-10.0-0.6","female","19","Australia","67888","26061","neither","neither","imgNWTK/KeepItSecret.jpg","imgNWTK/FindOutNow.jpg","info","eq","2.82","","52","2","1","0","null","imgNWTK/FindOutNow.jpg","imgNWTK/KeepItSecret.jpg","imgNWTK/FindOutNow.jpg","100","100","","",""
"6129","","","bandit-task-exp6","69","1624151","0.0-10.0-0.7","female","19","Australia","67888","26061","neither","neither","imgNWTK/KeepItSecret.jpg","imgNWTK/FindOutNow.jpg","info","eq","2.82","","53","1","1","91","null","imgNWTK/KeepItSecret.jpg","imgNWTK/FindOutNow.jpg","imgNWTK/KeepItSecret.jpg","50","50","","",""
"5877","","","bandit-task-exp6","70","1652616","0.0-10.0-0.8","female","19","Australia","67888","26061","neither","neither","imgNWTK/KeepItSecret.jpg","imgNWTK/FindOutNow.jpg","info","eq","2.82","","54","2","2","99","null","imgNWTK/FindOutNow.jpg","imgNWTK/KeepItSecret.jpg","imgNWTK/FindOutNow.jpg","90","100","","",""
"4977","","","bandit-task-exp6","71","1679216","0.0-10.0-0.9","female","19","Australia","67888","26061","neither","neither","imgNWTK/KeepItSecret.jpg","imgNWTK/FindOutNow.jpg","info","eq","2.82","","55","2","2","108","null","imgNWTK/FindOutNow.jpg","imgNWTK/KeepItSecret.jpg","imgNWTK/FindOutNow.jpg","99","1","","",""
"5543","","","bandit-task-exp6","72","1707583","0.0-10.0-0.10","female","19","Australia","67888","26061","neither","neither","imgNWTK/KeepItSecret.jpg","imgNWTK/FindOutNow.jpg","info","eq","2.82","","56","1","1","107","null","imgNWTK/KeepItSecret.jpg","imgNWTK/FindOutNow.jpg","imgNWTK/KeepItSecret.jpg","108","2","","",""
"6893","","","bandit-task-exp6","73","1738151","0.0-10.0-0.11","female","19","Australia","67888","26061","neither","neither","imgNWTK/KeepItSecret.jpg","imgNWTK/FindOutNow.jpg","info","eq","2.82","","57","2","1","0","null","imgNWTK/FindOutNow.jpg","imgNWTK/KeepItSecret.jpg","imgNWTK/FindOutNow.jpg","107","5","","",""
"9794","","","bandit-task-exp6","74","1770716","0.0-10.0-0.12","female","19","Australia","67888","26061","neither","neither","imgNWTK/KeepItSecret.jpg","imgNWTK/FindOutNow.jpg","info","eq","2.82","","58","2","2","109","null","imgNWTK/FindOutNow.jpg","imgNWTK/KeepItSecret.jpg","imgNWTK/FindOutNow.jpg","100","50","","",""
"8145","","","bandit-task-exp6","75","1801217","0.0-10.0-0.13","female","19","Australia","67888","26061","neither","neither","imgNWTK/KeepItSecret.jpg","imgNWTK/FindOutNow.jpg","info","eq","2.82","","59","1","2","0","null","imgNWTK/KeepItSecret.jpg","imgNWTK/FindOutNow.jpg","imgNWTK/KeepItSecret.jpg","50","50","","",""
"7727","","","bandit-task-exp6","76","1831134","0.0-10.0-0.14","female","19","Australia","67888","26061","neither","neither","imgNWTK/KeepItSecret.jpg","imgNWTK/FindOutNow.jpg","info","eq","2.82","","60","1","2","0","null","imgNWTK/KeepItSecret.jpg","imgNWTK/FindOutNow.jpg","imgNWTK/KeepItSecret.jpg","100","10","","",""
"1213","<p> Congratulations, you have finished the main part of the experiment. </p><p>Before you finish, we have a few short questions about the options and outcomes you saw in the task.</p>","0","html-button-response","77","1832350","0.0-11.0","female","19","Australia","67888","26061","neither","neither","imgNWTK/KeepItSecret.jpg","imgNWTK/FindOutNow.jpg","info","eq","2.82","","","","","","","","","","","","","",""
"2263","<p><b>Now, imagine that you clicked on the below button for another 10 trials (this includes <i> BOTH WIN and NO-WIN trials</i>).</p> <img src= 'imgNWTK/FindOutNow.jpg'></img></br></br> <p><b>Please type the reward (number of points) you would expect to receive on every trial.</br> Click start to begin.</p>","0","html-button-response","78","1834617","0.0-12.0","female","19","Australia","67888","26061","neither","neither","imgNWTK/KeepItSecret.jpg","imgNWTK/FindOutNow.jpg","info","eq","2.82","","","","","","","","","","","","","",""
"7011.5999999996275","","","survey-number","79","1841635","0.0-13.0-0.0","female","19","Australia","67888","26061","neither","neither","imgNWTK/KeepItSecret.jpg","imgNWTK/FindOutNow.jpg","info","eq","2.82","{""undefined"":""16""}","","","","","","","","","","","","imgNWTK/FindOutNow.jpg",""
"3842.699999999255","","","survey-number","80","1845482","0.0-13.0-0.1","female","19","Australia","67888","26061","neither","neither","imgNWTK/KeepItSecret.jpg","imgNWTK/FindOutNow.jpg","info","eq","2.82","{""undefined"":""19""}","","","","","","","","","","","","imgNWTK/FindOutNow.jpg",""
"1948","","","survey-number","81","1847432","0.0-13.0-0.2","female","19","Australia","67888","26061","neither","neither","imgNWTK/KeepItSecret.jpg","imgNWTK/FindOutNow.jpg","info","eq","2.82","{""undefined"":""-4""}","","","","","","","","","","","","imgNWTK/FindOutNow.jpg",""
"3450","","","survey-number","82","1850885","0.0-13.0-0.3","female","19","Australia","67888","26061","neither","neither","imgNWTK/KeepItSecret.jpg","imgNWTK/FindOutNow.jpg","info","eq","2.82","{""undefined"":""27""}","","","","","","","","","","","","imgNWTK/FindOutNow.jpg",""
"2477","","","survey-number","83","1853366","0.0-13.0-0.4","female","19","Australia","67888","26061","neither","neither","imgNWTK/KeepItSecret.jpg","imgNWTK/FindOutNow.jpg","info","eq","2.82","{""undefined"":""-1""}","","","","","","","","","","","","imgNWTK/FindOutNow.jpg",""
"3465.4000000003725","","","survey-number","84","1856833","0.0-13.0-0.5","female","19","Australia","67888","26061","neither","neither","imgNWTK/KeepItSecret.jpg","imgNWTK/FindOutNow.jpg","info","eq","2.82","{""undefined"":""36""}","","","","","","","","","","","","imgNWTK/FindOutNow.jpg",""
"1903.2999999988824","","","survey-number","85","1858741","0.0-13.0-0.6","female","19","Australia","67888","26061","neither","neither","imgNWTK/KeepItSecret.jpg","imgNWTK/FindOutNow.jpg","info","eq","2.82","{""undefined"":""13""}","","","","","","","","","","","","imgNWTK/FindOutNow.jpg",""
"1792.5999999996275","","","survey-number","86","1860539","0.0-13.0-0.7","female","19","Australia","67888","26061","neither","neither","imgNWTK/KeepItSecret.jpg","imgNWTK/FindOutNow.jpg","info","eq","2.82","{""undefined"":""15""}","","","","","","","","","","","","imgNWTK/FindOutNow.jpg",""
"1851.199999999255","","","survey-number","87","1862395","0.0-13.0-0.8","female","19","Australia","67888","26061","neither","neither","imgNWTK/KeepItSecret.jpg","imgNWTK/FindOutNow.jpg","info","eq","2.82","{""undefined"":""19""}","","","","","","","","","","","","imgNWTK/FindOutNow.jpg",""
"1417.4000000003725","","","survey-number","88","1863817","0.0-13.0-0.9","female","19","Australia","67888","26061","neither","neither","imgNWTK/KeepItSecret.jpg","imgNWTK/FindOutNow.jpg","info","eq","2.82","{""undefined"":""10""}","","","","","","","","","","","","imgNWTK/FindOutNow.jpg",""
"1946","<p><b>Imagine that you clicked on the below button for another 10 trials (this includes <i> both WIN and NO-WIN trials</i>).</p> <img src= 'imgNWTK/KeepItSecret.jpg'></img></br></br> <p><b>Please type the reward (number of points) you would expect to receive on every trial.</br> Click start to begin.</p>","0","html-button-response","89","1865767","0.0-14.0","female","19","Australia","67888","26061","neither","neither","imgNWTK/KeepItSecret.jpg","imgNWTK/FindOutNow.jpg","info","eq","2.82","","","","","","","","","","","","","",""
"1899.3999999985099","","","survey-number","90","1867671","0.0-15.0-0.0","female","19","Australia","67888","26061","neither","neither","imgNWTK/KeepItSecret.jpg","imgNWTK/FindOutNow.jpg","info","eq","2.82","{""undefined"":""10""}","","","","","","","","","","","","imgNWTK/KeepItSecret.jpg",""
"823.7999999988824","","","survey-number","91","1868500","0.0-15.0-0.1","female","19","Australia","67888","26061","neither","neither","imgNWTK/KeepItSecret.jpg","imgNWTK/FindOutNow.jpg","info","eq","2.82","{""undefined"":""15""}","","","","","","","","","","","","imgNWTK/KeepItSecret.jpg",""
"801.6999999992549","","","survey-number","92","1869306","0.0-15.0-0.2","female","19","Australia","67888","26061","neither","neither","imgNWTK/KeepItSecret.jpg","imgNWTK/FindOutNow.jpg","info","eq","2.82","{""undefined"":""14""}","","","","","","","","","","","","imgNWTK/KeepItSecret.jpg",""
"805.9000000003725","","","survey-number","93","1870116","0.0-15.0-0.3","female","19","Australia","67888","26061","neither","neither","imgNWTK/KeepItSecret.jpg","imgNWTK/FindOutNow.jpg","info","eq","2.82","{""undefined"":""2""}","","","","","","","","","","","","imgNWTK/KeepItSecret.jpg",""
"895.6000000014901","","","survey-number","94","1871016","0.0-15.0-0.4","female","19","Australia","67888","26061","neither","neither","imgNWTK/KeepItSecret.jpg","imgNWTK/FindOutNow.jpg","info","eq","2.82","{""undefined"":""5""}","","","","","","","","","","","","imgNWTK/KeepItSecret.jpg",""
"812.5999999996275","","","survey-number","95","1871833","0.0-15.0-0.5","female","19","Australia","67888","26061","neither","neither","imgNWTK/KeepItSecret.jpg","imgNWTK/FindOutNow.jpg","info","eq","2.82","{""undefined"":""9""}","","","","","","","","","","","","imgNWTK/KeepItSecret.jpg",""
"38654","","","survey-number","96","1910491","0.0-15.0-0.6","female","19","Australia","67888","26061","neither","neither","imgNWTK/KeepItSecret.jpg","imgNWTK/FindOutNow.jpg","info","eq","2.82","{""undefined"":""100""}","","","","","","","","","","","","imgNWTK/KeepItSecret.jpg",""
"1569.5","","","survey-number","97","1912066","0.0-15.0-0.7","female","19","Australia","67888","26061","neither","neither","imgNWTK/KeepItSecret.jpg","imgNWTK/FindOutNow.jpg","info","eq","2.82","{""undefined"":""50""}","","","","","","","","","","","","imgNWTK/KeepItSecret.jpg",""
"1002.5999999996275","","","survey-number","98","1913073","0.0-15.0-0.8","female","19","Australia","67888","26061","neither","neither","imgNWTK/KeepItSecret.jpg","imgNWTK/FindOutNow.jpg","info","eq","2.82","{""undefined"":""4""}","","","","","","","","","","","","imgNWTK/KeepItSecret.jpg",""
"2173.5999999996275","","","survey-number","99","1915251","0.0-15.0-0.9","female","19","Australia","67888","26061","neither","neither","imgNWTK/KeepItSecret.jpg","imgNWTK/FindOutNow.jpg","info","eq","2.82","{""undefined"":""100""}","","","","","","","","","","","","imgNWTK/KeepItSecret.jpg",""
"11891.099999999627","","","survey-number","100","1927150","0.0-16.0","female","19","Australia","67888","26061","neither","neither","imgNWTK/KeepItSecret.jpg","imgNWTK/FindOutNow.jpg","info","eq","2.82","{""undefined"":""100""}","","","","","","","","","","","","","imgNWTK/FindOutNow.jpg"
"44321.09999999963","","","survey-number","101","1971476","0.0-17.0","female","19","Australia","67888","26061","neither","neither","imgNWTK/KeepItSecret.jpg","imgNWTK/FindOutNow.jpg","info","eq","2.82","{""undefined"":""50""}","","","","","","","","","","","","","imgNWTK/KeepItSecret.jpg"
"35671","<p style=""text-align:left;"">Great! We are almost at the end of the study... (Please do not close the browser window yet.)</p><p> Your final points balance is 2822, which equals to a bonus payment of $2.82. Please collect your payment from Mathews Building Room 721 (Wed-Fri 9am-5pm); please email jaimie.lee@unsw.edu.au at least 24 hours prior to collection so that this is ready for you.</p><p style=""text-align:left;"">To view the debriefing form, please click <a href=""./imgNWTK/debrief_3205.pdf"" target=""_blank"">here</a> to download a copy.</p><p style=""text-align:left;"">Then, <b>please click the below button</b> to confirm that you have received your debrief and to complete the study. Upon clicking ""Finish!"", your SONA credit will be automatically assigned.</p>","0","html-button-response","102","2007150","0.0-18.0","female","19","Australia","67888","26061","neither","neither","imgNWTK/KeepItSecret.jpg","imgNWTK/FindOutNow.jpg","info","eq","2.82","","","","","","","","","","","","","",""
