"rt","stimulus","button_pressed","trial_type","trial_index","time_elapsed","internal_node_id","gender","age","language","PID","sona_id","subStim","optStim","stim1","stim2","infoCond","optimCond","bonus","responses","banditTrial","choice","cue","feedback","estimateData","leftOption","rightOption","choiceName","leftInput","rightInput","key_press","postQ","singleEst"
"1284019","<p>Thank you for signing up to participate in SONA Study 465! <br> During this study, please focus on the experiment and refrain from activities such as:</p>- <b>Switching to other tabs on your browser (this will be monitored via the experiment)</br> - Using your mobile phone/cell phone</br> - Communicating with others</br></br></b><p>This way, you are helping to provide data that is useful for psychological research. We thank you for your cooperation!</p>","0","html-button-response","0","1284022","0.0-0.0","female","20","China","99701","26306","neither","neither","imgNWTK/square.png","imgNWTK/triangle.png","noninfo","eq","3.22","","","","","","","","","","","","","",""
"3067","<p>Welcome to the experiment!</p><p>You will now read some instructions about the task. Press the 'Next' button to continue. </p>","0","html-button-response","1","1287089","0.0-1.0","female","20","China","99701","26306","neither","neither","imgNWTK/square.png","imgNWTK/triangle.png","noninfo","eq","3.22","","","","","","","","","","","","","",""
"34347","<p> On each trial throughout the experiment you will choose between two options, </br>a <b>Black Square </b> and <b> Black Triangle </b>, as seen below.</p><div><div style= 'float: left; width: 300px; margin: 10px 10px;'><img src= 'imgNWTK/square.png'></img></div><div style= 'float: right; width: 300px; margin: 10px 10px;'><img src= 'imgNWTK/triangle.png'></img></div></div><br/><br/><br/><br/><br/><br/><br/><br/><br/><br/><br/><p>Each option results in winning points or receiving 0 points.</br>There is a 50% chance of either winning or receiving 0 points.</p><p>You won't receive the outcome until after a <b> 20 second delay</b>.</p>","0","html-button-response","2","1321438","0.0-2.0-0.0","female","20","China","99701","26306","neither","neither","imgNWTK/square.png","imgNWTK/triangle.png","noninfo","eq","3.22","","","","","","","","","","","","","",""
"35867","<img src= 'imgNWTK/NonInfoDiagram.png'></img><p>As seen above, whether you choose the square or triangle, you will receive a coloured circle after the choice. </p> <p>This circle will be on screen for 20 seconds until you win points or receive 0 points.</p><p>The coloured circle depends on which option you chose. </br> In the above example, choosing a triangle leads to a green circle and choosing the square leads to a red circle.</p>Please note: the circles in your task will be different to the above colours.</br></br>","0","html-button-response","3","1357306","0.0-2.0-1.0","female","20","China","99701","26306","neither","neither","imgNWTK/square.png","imgNWTK/triangle.png","noninfo","eq","3.22","","","","","","","","","","","","","",""
"123787","<img src= 'cues/winTrials_noInfo.png' width = '1200'></img><p>To reiterate, 50% of the outcomes of each option will be WIN TRIALS, and the other 50% will be NO-WIN TRIALS.","0","html-button-response","4","1481094","0.0-2.0-2.0","female","20","China","99701","26306","neither","neither","imgNWTK/square.png","imgNWTK/triangle.png","noninfo","eq","3.22","","","","","","","","","","","","","",""
"148334","<p> There will be <b>four blocks</b> in the experiment.</br>You will be given a short 15 second break between each block.</p><p><b>The points and the options will remain the same between the blocks.</b></p>The blocks are there just to give you a small break.</br></br></br></br><p>The points you earn in the task are also equal to <b> actual money</b>.</br> <b>1000 points is equal to $1 AUD</b></p><p>This is the rate you will be paid at the experiment's end.","0","html-button-response","5","1629428","0.0-2.0-3.0","female","20","China","99701","26306","neither","neither","imgNWTK/square.png","imgNWTK/triangle.png","noninfo","eq","3.22","","","","","","","","","","","","","",""
"28331","","","survey-multi-choice","6","1657762","0.0-2.0-4.0","female","20","China","99701","26306","neither","neither","imgNWTK/square.png","imgNWTK/triangle.png","noninfo","eq","3.22","{""Q0"":""20 Seconds"",""Q1"":""True"",""Q2"":""Equally""}","","","","","","","","","","","","",""
"6521","<p> Well done, all your answers were correct! <br> The experiment is about to start now. <br/> Click start to continue, or email your researcher <b>(amy.x.li@unsw.edu.au)</b> if you have any questions before starting.","0","html-button-response","7","1664285","0.0-3.0","female","20","China","99701","26306","neither","neither","imgNWTK/square.png","imgNWTK/triangle.png","noninfo","eq","3.22","","","","","","","","","","","","","",""
"5088","","","bandit-task-exp6","8","1692974","0.0-4.0-0.0","female","20","China","99701","26306","neither","neither","imgNWTK/square.png","imgNWTK/triangle.png","noninfo","eq","3.22","","1","2","2","97","null","imgNWTK/square.png","imgNWTK/triangle.png","imgNWTK/triangle.png","NaN","NaN","","",""
"2448","","","bandit-task-exp6","9","1729045","0.0-4.0-0.1","female","20","China","99701","26306","neither","neither","imgNWTK/square.png","imgNWTK/triangle.png","noninfo","eq","3.22","","2","1","1","98","null","imgNWTK/triangle.png","imgNWTK/square.png","imgNWTK/square.png","NaN","NaN","","",""
"934","","","bandit-task-exp6","10","1752333","0.0-4.0-0.2","female","20","China","99701","26306","neither","neither","imgNWTK/square.png","imgNWTK/triangle.png","noninfo","eq","3.22","","3","1","1","100","null","imgNWTK/square.png","imgNWTK/triangle.png","imgNWTK/square.png","NaN","NaN","","",""
"8323","","","bandit-task-exp6","11","1785160","0.0-4.0-0.3","female","20","China","99701","26306","neither","neither","imgNWTK/square.png","imgNWTK/triangle.png","noninfo","eq","3.22","","4","2","1","0","null","imgNWTK/square.png","imgNWTK/triangle.png","imgNWTK/triangle.png","NaN","NaN","","",""
"711","","","bandit-task-exp6","12","1811293","0.0-4.0-0.4","female","20","China","99701","26306","neither","neither","imgNWTK/square.png","imgNWTK/triangle.png","noninfo","eq","3.22","","5","1","2","0","null","imgNWTK/square.png","imgNWTK/triangle.png","imgNWTK/square.png","NaN","NaN","","",""
"2593","","","bandit-task-exp6","13","1836457","0.0-4.0-0.5","female","20","China","99701","26306","neither","neither","imgNWTK/square.png","imgNWTK/triangle.png","noninfo","eq","3.22","","6","1","2","0","null","imgNWTK/triangle.png","imgNWTK/square.png","imgNWTK/square.png","NaN","NaN","","",""
"2207","","","bandit-task-exp6","14","1861055","0.0-4.0-0.6","female","20","China","99701","26306","neither","neither","imgNWTK/square.png","imgNWTK/triangle.png","noninfo","eq","3.22","","7","2","2","104","null","imgNWTK/triangle.png","imgNWTK/square.png","imgNWTK/triangle.png","NaN","NaN","","",""
"1848","","","bandit-task-exp6","15","1884671","0.0-4.0-0.7","female","20","China","99701","26306","neither","neither","imgNWTK/square.png","imgNWTK/triangle.png","noninfo","eq","3.22","","8","2","2","106","null","imgNWTK/triangle.png","imgNWTK/square.png","imgNWTK/triangle.png","NaN","NaN","","",""
"1042","","","bandit-task-exp6","16","1909930","0.0-4.0-0.8","female","20","China","99701","26306","neither","neither","imgNWTK/square.png","imgNWTK/triangle.png","noninfo","eq","3.22","","9","1","2","0","null","imgNWTK/square.png","imgNWTK/triangle.png","imgNWTK/square.png","NaN","NaN","","",""
"605","","","bandit-task-exp6","17","1932678","0.0-4.0-0.9","female","20","China","99701","26306","neither","neither","imgNWTK/square.png","imgNWTK/triangle.png","noninfo","eq","3.22","","10","1","1","104","null","imgNWTK/square.png","imgNWTK/triangle.png","imgNWTK/square.png","NaN","NaN","","",""
"776","","","bandit-task-exp6","18","1961286","0.0-4.0-0.10","female","20","China","99701","26306","neither","neither","imgNWTK/square.png","imgNWTK/triangle.png","noninfo","eq","3.22","","11","2","2","91","null","imgNWTK/triangle.png","imgNWTK/square.png","imgNWTK/triangle.png","NaN","NaN","","",""
"496","","","bandit-task-exp6","19","1984020","0.0-4.0-0.11","female","20","China","99701","26306","neither","neither","imgNWTK/square.png","imgNWTK/triangle.png","noninfo","eq","3.22","","12","1","1","101","null","imgNWTK/square.png","imgNWTK/triangle.png","imgNWTK/square.png","NaN","NaN","","",""
"502","","","bandit-task-exp6","20","2006281","0.0-4.0-0.12","female","20","China","99701","26306","neither","neither","imgNWTK/square.png","imgNWTK/triangle.png","noninfo","eq","3.22","","13","2","2","101","null","imgNWTK/triangle.png","imgNWTK/square.png","imgNWTK/triangle.png","NaN","NaN","","",""
"599","","","bandit-task-exp6","21","2028776","0.0-4.0-0.13","female","20","China","99701","26306","neither","neither","imgNWTK/square.png","imgNWTK/triangle.png","noninfo","eq","3.22","","14","2","1","0","null","imgNWTK/triangle.png","imgNWTK/square.png","imgNWTK/triangle.png","NaN","NaN","","",""
"746","","","bandit-task-exp6","22","2051346","0.0-4.0-0.14","female","20","China","99701","26306","neither","neither","imgNWTK/square.png","imgNWTK/triangle.png","noninfo","eq","3.22","","15","1","1","108","null","imgNWTK/square.png","imgNWTK/triangle.png","imgNWTK/square.png","NaN","NaN","","",""
"null","<p><b> Congratulations, you have finished this block. </b> </p><p>Please take a short break before moving onto the next block.</p><p>The next block will start after a 15 second break.</p><b>Remember, the point rewards are the same between blocks","","html-keyboard-response","23","2066347","0.0-5.0","female","20","China","99701","26306","neither","neither","imgNWTK/square.png","imgNWTK/triangle.png","noninfo","eq","3.22","","","","","","","","","","","","null","",""
"1154","","","bandit-task-exp6","24","2089115","0.0-6.0-0.0","female","20","China","99701","26306","neither","neither","imgNWTK/square.png","imgNWTK/triangle.png","noninfo","eq","3.22","","16","2","1","0","null","imgNWTK/triangle.png","imgNWTK/square.png","imgNWTK/triangle.png","NaN","NaN","","",""
"1589","","","bandit-task-exp6","25","2112324","0.0-6.0-0.1","female","20","China","99701","26306","neither","neither","imgNWTK/square.png","imgNWTK/triangle.png","noninfo","eq","3.22","","17","2","2","96","null","imgNWTK/triangle.png","imgNWTK/square.png","imgNWTK/triangle.png","NaN","NaN","","",""
"781","","","bandit-task-exp6","26","2134766","0.0-6.0-0.2","female","20","China","99701","26306","neither","neither","imgNWTK/square.png","imgNWTK/triangle.png","noninfo","eq","3.22","","18","1","1","108","null","imgNWTK/square.png","imgNWTK/triangle.png","imgNWTK/square.png","NaN","NaN","","",""
"906","","","bandit-task-exp6","27","2157178","0.0-6.0-0.3","female","20","China","99701","26306","neither","neither","imgNWTK/square.png","imgNWTK/triangle.png","noninfo","eq","3.22","","19","1","1","110","null","imgNWTK/square.png","imgNWTK/triangle.png","imgNWTK/square.png","NaN","NaN","","",""
"453","","","bandit-task-exp6","28","2180099","0.0-6.0-0.4","female","20","China","99701","26306","neither","neither","imgNWTK/square.png","imgNWTK/triangle.png","noninfo","eq","3.22","","20","1","1","95","null","imgNWTK/square.png","imgNWTK/triangle.png","imgNWTK/square.png","NaN","NaN","","",""
"530","","","bandit-task-exp6","29","2202341","0.0-6.0-0.5","female","20","China","99701","26306","neither","neither","imgNWTK/square.png","imgNWTK/triangle.png","noninfo","eq","3.22","","21","1","1","93","null","imgNWTK/square.png","imgNWTK/triangle.png","imgNWTK/square.png","NaN","NaN","","",""
"423","","","bandit-task-exp6","30","2224690","0.0-6.0-0.6","female","20","China","99701","26306","neither","neither","imgNWTK/square.png","imgNWTK/triangle.png","noninfo","eq","3.22","","22","1","2","0","null","imgNWTK/square.png","imgNWTK/triangle.png","imgNWTK/square.png","NaN","NaN","","",""
"460","","","bandit-task-exp6","31","2247792","0.0-6.0-0.7","female","20","China","99701","26306","neither","neither","imgNWTK/square.png","imgNWTK/triangle.png","noninfo","eq","3.22","","23","1","2","0","null","imgNWTK/square.png","imgNWTK/triangle.png","imgNWTK/square.png","NaN","NaN","","",""
"703","","","bandit-task-exp6","32","2270093","0.0-6.0-0.8","female","20","China","99701","26306","neither","neither","imgNWTK/square.png","imgNWTK/triangle.png","noninfo","eq","3.22","","24","2","2","108","null","imgNWTK/square.png","imgNWTK/triangle.png","imgNWTK/triangle.png","NaN","NaN","","",""
"1080","","","bandit-task-exp6","33","2292976","0.0-6.0-0.9","female","20","China","99701","26306","neither","neither","imgNWTK/square.png","imgNWTK/triangle.png","noninfo","eq","3.22","","25","2","2","101","null","imgNWTK/triangle.png","imgNWTK/square.png","imgNWTK/triangle.png","NaN","NaN","","",""
"1002","","","bandit-task-exp6","34","2315766","0.0-6.0-0.10","female","20","China","99701","26306","neither","neither","imgNWTK/square.png","imgNWTK/triangle.png","noninfo","eq","3.22","","26","2","1","0","null","imgNWTK/square.png","imgNWTK/triangle.png","imgNWTK/triangle.png","NaN","NaN","","",""
"576","","","bandit-task-exp6","35","2338906","0.0-6.0-0.11","female","20","China","99701","26306","neither","neither","imgNWTK/square.png","imgNWTK/triangle.png","noninfo","eq","3.22","","27","1","2","0","null","imgNWTK/square.png","imgNWTK/triangle.png","imgNWTK/square.png","NaN","NaN","","",""
"612","","","bandit-task-exp6","36","2361172","0.0-6.0-0.12","female","20","China","99701","26306","neither","neither","imgNWTK/square.png","imgNWTK/triangle.png","noninfo","eq","3.22","","28","2","1","0","null","imgNWTK/triangle.png","imgNWTK/square.png","imgNWTK/triangle.png","NaN","NaN","","",""
"1420","","","bandit-task-exp6","37","2385691","0.0-6.0-0.13","female","20","China","99701","26306","neither","neither","imgNWTK/square.png","imgNWTK/triangle.png","noninfo","eq","3.22","","29","2","2","110","null","imgNWTK/square.png","imgNWTK/triangle.png","imgNWTK/triangle.png","NaN","NaN","","",""
"689","","","bandit-task-exp6","38","2408515","0.0-6.0-0.14","female","20","China","99701","26306","neither","neither","imgNWTK/square.png","imgNWTK/triangle.png","noninfo","eq","3.22","","30","2","1","0","null","imgNWTK/triangle.png","imgNWTK/square.png","imgNWTK/triangle.png","NaN","NaN","","",""
"null","<p><b> Congratulations, you have finished this block. </b> </p><p>Please take a short break before moving onto the next block.</p><p>The next block will start after a 15 second break.</p><b>Remember, the point rewards are the same between blocks","","html-keyboard-response","39","2423521","0.0-7.0","female","20","China","99701","26306","neither","neither","imgNWTK/square.png","imgNWTK/triangle.png","noninfo","eq","3.22","","","","","","","","","","","","null","",""
"1627","","","bandit-task-exp6","40","2446599","0.0-8.0-0.0","female","20","China","99701","26306","neither","neither","imgNWTK/square.png","imgNWTK/triangle.png","noninfo","eq","3.22","","31","2","2","98","null","imgNWTK/square.png","imgNWTK/triangle.png","imgNWTK/triangle.png","NaN","NaN","","",""
"1133","","","bandit-task-exp6","41","2469728","0.0-8.0-0.1","female","20","China","99701","26306","neither","neither","imgNWTK/square.png","imgNWTK/triangle.png","noninfo","eq","3.22","","32","1","1","99","null","imgNWTK/square.png","imgNWTK/triangle.png","imgNWTK/square.png","NaN","NaN","","",""
"780","","","bandit-task-exp6","42","2492198","0.0-8.0-0.2","female","20","China","99701","26306","neither","neither","imgNWTK/square.png","imgNWTK/triangle.png","noninfo","eq","3.22","","33","1","2","0","null","imgNWTK/square.png","imgNWTK/triangle.png","imgNWTK/square.png","NaN","NaN","","",""
"629","","","bandit-task-exp6","43","2514266","0.0-8.0-0.3","female","20","China","99701","26306","neither","neither","imgNWTK/square.png","imgNWTK/triangle.png","noninfo","eq","3.22","","34","2","2","92","null","imgNWTK/triangle.png","imgNWTK/square.png","imgNWTK/triangle.png","NaN","NaN","","",""
"1936","","","bandit-task-exp6","44","2537653","0.0-8.0-0.4","female","20","China","99701","26306","neither","neither","imgNWTK/square.png","imgNWTK/triangle.png","noninfo","eq","3.22","","35","2","1","0","null","imgNWTK/triangle.png","imgNWTK/square.png","imgNWTK/triangle.png","NaN","NaN","","",""
"492","","","bandit-task-exp6","45","2559485","0.0-8.0-0.5","female","20","China","99701","26306","neither","neither","imgNWTK/square.png","imgNWTK/triangle.png","noninfo","eq","3.22","","36","2","1","0","null","imgNWTK/triangle.png","imgNWTK/square.png","imgNWTK/triangle.png","NaN","NaN","","",""
"388","","","bandit-task-exp6","46","2582716","0.0-8.0-0.6","female","20","China","99701","26306","neither","neither","imgNWTK/square.png","imgNWTK/triangle.png","noninfo","eq","3.22","","37","1","2","0","null","imgNWTK/square.png","imgNWTK/triangle.png","imgNWTK/square.png","NaN","NaN","","",""
"989","","","bandit-task-exp6","47","2605517","0.0-8.0-0.7","female","20","China","99701","26306","neither","neither","imgNWTK/square.png","imgNWTK/triangle.png","noninfo","eq","3.22","","38","2","2","92","null","imgNWTK/triangle.png","imgNWTK/square.png","imgNWTK/triangle.png","NaN","NaN","","",""
"563","","","bandit-task-exp6","48","2627690","0.0-8.0-0.8","female","20","China","99701","26306","neither","neither","imgNWTK/square.png","imgNWTK/triangle.png","noninfo","eq","3.22","","39","2","1","0","null","imgNWTK/triangle.png","imgNWTK/square.png","imgNWTK/triangle.png","NaN","NaN","","",""
"1481","","","bandit-task-exp6","49","2650990","0.0-8.0-0.9","female","20","China","99701","26306","neither","neither","imgNWTK/square.png","imgNWTK/triangle.png","noninfo","eq","3.22","","40","1","1","103","null","imgNWTK/triangle.png","imgNWTK/square.png","imgNWTK/square.png","NaN","NaN","","",""
"777","","","bandit-task-exp6","50","2673624","0.0-8.0-0.10","female","20","China","99701","26306","neither","neither","imgNWTK/square.png","imgNWTK/triangle.png","noninfo","eq","3.22","","41","1","2","0","null","imgNWTK/square.png","imgNWTK/triangle.png","imgNWTK/square.png","NaN","NaN","","",""
"572","","","bandit-task-exp6","51","2696205","0.0-8.0-0.11","female","20","China","99701","26306","neither","neither","imgNWTK/square.png","imgNWTK/triangle.png","noninfo","eq","3.22","","42","2","1","0","null","imgNWTK/square.png","imgNWTK/triangle.png","imgNWTK/triangle.png","NaN","NaN","","",""
"815","","","bandit-task-exp6","52","2719264","0.0-8.0-0.12","female","20","China","99701","26306","neither","neither","imgNWTK/square.png","imgNWTK/triangle.png","noninfo","eq","3.22","","43","2","1","0","null","imgNWTK/triangle.png","imgNWTK/square.png","imgNWTK/triangle.png","NaN","NaN","","",""
"1202","","","bandit-task-exp6","53","2742010","0.0-8.0-0.13","female","20","China","99701","26306","neither","neither","imgNWTK/square.png","imgNWTK/triangle.png","noninfo","eq","3.22","","44","1","1","98","null","imgNWTK/square.png","imgNWTK/triangle.png","imgNWTK/square.png","NaN","NaN","","",""
"1124","","","bandit-task-exp6","54","2764745","0.0-8.0-0.14","female","20","China","99701","26306","neither","neither","imgNWTK/square.png","imgNWTK/triangle.png","noninfo","eq","3.22","","45","1","2","0","null","imgNWTK/square.png","imgNWTK/triangle.png","imgNWTK/square.png","NaN","NaN","","",""
"null","<p><b> Congratulations, you have finished this block. </b> </p><p>Please take a short break before moving onto the next block.</p><p>The next block will start after a 15 second break.</p><b>Remember, the point rewards are the same between blocks","","html-keyboard-response","55","2779760","0.0-9.0","female","20","China","99701","26306","neither","neither","imgNWTK/square.png","imgNWTK/triangle.png","noninfo","eq","3.22","","","","","","","","","","","","null","",""
"25859","","","bandit-task-exp6","56","2827667","0.0-10.0-0.0","female","20","China","99701","26306","neither","neither","imgNWTK/square.png","imgNWTK/triangle.png","noninfo","eq","3.22","","46","2","1","0","null","imgNWTK/square.png","imgNWTK/triangle.png","imgNWTK/triangle.png","0","96","","",""
"9446","","","bandit-task-exp6","57","2860058","0.0-10.0-0.1","female","20","China","99701","26306","neither","neither","imgNWTK/square.png","imgNWTK/triangle.png","noninfo","eq","3.22","","47","1","1","99","null","imgNWTK/square.png","imgNWTK/triangle.png","imgNWTK/square.png","98","0","","",""
"6791","","","bandit-task-exp6","58","2889056","0.0-10.0-0.2","female","20","China","99701","26306","neither","neither","imgNWTK/square.png","imgNWTK/triangle.png","noninfo","eq","3.22","","48","1","2","0","null","imgNWTK/square.png","imgNWTK/triangle.png","imgNWTK/square.png","108","0","","",""
"5681","","","bandit-task-exp6","59","2917916","0.0-10.0-0.3","female","20","China","99701","26306","neither","neither","imgNWTK/square.png","imgNWTK/triangle.png","noninfo","eq","3.22","","49","2","1","0","null","imgNWTK/square.png","imgNWTK/triangle.png","imgNWTK/triangle.png","0","99","","",""
"8451","","","bandit-task-exp6","60","2949130","0.0-10.0-0.4","female","20","China","99701","26306","neither","neither","imgNWTK/square.png","imgNWTK/triangle.png","noninfo","eq","3.22","","50","2","1","0","null","imgNWTK/triangle.png","imgNWTK/square.png","imgNWTK/triangle.png","99","0","","",""
"5861","","","bandit-task-exp6","61","2977870","0.0-10.0-0.5","female","20","China","99701","26306","neither","neither","imgNWTK/square.png","imgNWTK/triangle.png","noninfo","eq","3.22","","51","1","1","108","null","imgNWTK/triangle.png","imgNWTK/square.png","imgNWTK/square.png","0","99","","",""
"7394","","","bandit-task-exp6","62","3008551","0.0-10.0-0.6","female","20","China","99701","26306","neither","neither","imgNWTK/square.png","imgNWTK/triangle.png","noninfo","eq","3.22","","52","1","1","110","null","imgNWTK/triangle.png","imgNWTK/square.png","imgNWTK/square.png","0","108","","",""
"7063","","","bandit-task-exp6","63","3038355","0.0-10.0-0.7","female","20","China","99701","26306","neither","neither","imgNWTK/square.png","imgNWTK/triangle.png","noninfo","eq","3.22","","53","1","1","92","null","imgNWTK/square.png","imgNWTK/triangle.png","imgNWTK/square.png","110","0","","",""
"6665","","","bandit-task-exp6","64","3066864","0.0-10.0-0.8","female","20","China","99701","26306","neither","neither","imgNWTK/square.png","imgNWTK/triangle.png","noninfo","eq","3.22","","54","1","1","94","null","imgNWTK/triangle.png","imgNWTK/square.png","imgNWTK/square.png","0","99","","",""
"5914","","","bandit-task-exp6","65","3097396","0.0-10.0-0.9","female","20","China","99701","26306","neither","neither","imgNWTK/square.png","imgNWTK/triangle.png","noninfo","eq","3.22","","55","1","2","0","null","imgNWTK/triangle.png","imgNWTK/square.png","imgNWTK/square.png","0","98","","",""
"5612","","","bandit-task-exp6","66","3131287","0.0-10.0-0.10","female","20","China","99701","26306","neither","neither","imgNWTK/square.png","imgNWTK/triangle.png","noninfo","eq","3.22","","56","2","1","0","null","imgNWTK/square.png","imgNWTK/triangle.png","imgNWTK/triangle.png","0","98","","",""
"7327","","","bandit-task-exp6","67","3162405","0.0-10.0-0.11","female","20","China","99701","26306","neither","neither","imgNWTK/square.png","imgNWTK/triangle.png","noninfo","eq","3.22","","57","1","2","0","null","imgNWTK/square.png","imgNWTK/triangle.png","imgNWTK/square.png","99","0","","",""
"5379","","","bandit-task-exp6","68","3190751","0.0-10.0-0.12","female","20","China","99701","26306","neither","neither","imgNWTK/square.png","imgNWTK/triangle.png","noninfo","eq","3.22","","58","2","2","96","null","imgNWTK/triangle.png","imgNWTK/square.png","imgNWTK/triangle.png","98","0","","",""
"7164","","","bandit-task-exp6","69","3219625","0.0-10.0-0.13","female","20","China","99701","26306","neither","neither","imgNWTK/square.png","imgNWTK/triangle.png","noninfo","eq","3.22","","59","2","2","108","null","imgNWTK/triangle.png","imgNWTK/square.png","imgNWTK/triangle.png","98","0","","",""
"6286","","","bandit-task-exp6","70","3248439","0.0-10.0-0.14","female","20","China","99701","26306","neither","neither","imgNWTK/square.png","imgNWTK/triangle.png","noninfo","eq","3.22","","60","2","2","104","null","imgNWTK/square.png","imgNWTK/triangle.png","imgNWTK/triangle.png","0","96","","",""
"4396","<p> Congratulations, you have finished the main part of the experiment. </p><p>Before you finish, we have a few short questions about the options and outcomes you saw in the task.</p>","0","html-button-response","71","3252837","0.0-11.0","female","20","China","99701","26306","neither","neither","imgNWTK/square.png","imgNWTK/triangle.png","noninfo","eq","3.22","","","","","","","","","","","","","",""
"22055","<p><b>Now, imagine that you clicked on the below button for another 10 trials (this includes <i> BOTH WIN and NO-WIN trials</i>).</p> <img src= 'imgNWTK/square.png'></img></br></br> <p><b>Please type the reward (number of points) you would expect to receive on every trial.</br> Click start to begin.</p>","0","html-button-response","72","3274892","0.0-12.0","female","20","China","99701","26306","neither","neither","imgNWTK/square.png","imgNWTK/triangle.png","noninfo","eq","3.22","","","","","","","","","","","","","",""
"11017.5","","","survey-number","73","3285913","0.0-13.0-0.0","female","20","China","99701","26306","neither","neither","imgNWTK/square.png","imgNWTK/triangle.png","noninfo","eq","3.22","{""undefined"":""98""}","","","","","","","","","","","","imgNWTK/square.png",""
"8832.900000035763","","","survey-number","74","3294749","0.0-13.0-0.1","female","20","China","99701","26306","neither","neither","imgNWTK/square.png","imgNWTK/triangle.png","noninfo","eq","3.22","{""undefined"":""108""}","","","","","","","","","","","","imgNWTK/square.png",""
"4045.100000023842","","","survey-number","75","3298797","0.0-13.0-0.2","female","20","China","99701","26306","neither","neither","imgNWTK/square.png","imgNWTK/triangle.png","noninfo","eq","3.22","{""undefined"":""104""}","","","","","","","","","","","","imgNWTK/square.png",""
"2154.300000011921","","","survey-number","76","3300954","0.0-13.0-0.3","female","20","China","99701","26306","neither","neither","imgNWTK/square.png","imgNWTK/triangle.png","noninfo","eq","3.22","{""undefined"":""0""}","","","","","","","","","","","","imgNWTK/square.png",""
"2558.800000011921","","","survey-number","77","3303516","0.0-13.0-0.4","female","20","China","99701","26306","neither","neither","imgNWTK/square.png","imgNWTK/triangle.png","noninfo","eq","3.22","{""undefined"":""0""}","","","","","","","","","","","","imgNWTK/square.png",""
"2388.100000023842","","","survey-number","78","3305906","0.0-13.0-0.5","female","20","China","99701","26306","neither","neither","imgNWTK/square.png","imgNWTK/triangle.png","noninfo","eq","3.22","{""undefined"":""0""}","","","","","","","","","","","","imgNWTK/square.png",""
"2596.600000023842","","","survey-number","79","3308504","0.0-13.0-0.6","female","20","China","99701","26306","neither","neither","imgNWTK/square.png","imgNWTK/triangle.png","noninfo","eq","3.22","{""undefined"":""99""}","","","","","","","","","","","","imgNWTK/square.png",""
"2476","","","survey-number","80","3310983","0.0-13.0-0.7","female","20","China","99701","26306","neither","neither","imgNWTK/square.png","imgNWTK/triangle.png","noninfo","eq","3.22","{""undefined"":""0""}","","","","","","","","","","","","imgNWTK/square.png",""
"2948.7999999523163","","","survey-number","81","3313934","0.0-13.0-0.8","female","20","China","99701","26306","neither","neither","imgNWTK/square.png","imgNWTK/triangle.png","noninfo","eq","3.22","{""undefined"":""98""}","","","","","","","","","","","","imgNWTK/square.png",""
"6606","","","survey-number","82","3320543","0.0-13.0-0.9","female","20","China","99701","26306","neither","neither","imgNWTK/square.png","imgNWTK/triangle.png","noninfo","eq","3.22","{""undefined"":""0""}","","","","","","","","","","","","imgNWTK/square.png",""
"25225","<p><b>Imagine that you clicked on the below button for another 10 trials (this includes <i> both WIN and NO-WIN trials</i>).</p> <img src= 'imgNWTK/triangle.png'></img></br></br> <p><b>Please type the reward (number of points) you would expect to receive on every trial.</br> Click start to begin.</p>","0","html-button-response","83","3345769","0.0-14.0","female","20","China","99701","26306","neither","neither","imgNWTK/square.png","imgNWTK/triangle.png","noninfo","eq","3.22","","","","","","","","","","","","","",""
"4401.300000011921","","","survey-number","84","3350173","0.0-15.0-0.0","female","20","China","99701","26306","neither","neither","imgNWTK/square.png","imgNWTK/triangle.png","noninfo","eq","3.22","{""undefined"":""104""}","","","","","","","","","","","","imgNWTK/triangle.png",""
"2476.900000035763","","","survey-number","85","3352653","0.0-15.0-0.1","female","20","China","99701","26306","neither","neither","imgNWTK/square.png","imgNWTK/triangle.png","noninfo","eq","3.22","{""undefined"":""98""}","","","","","","","","","","","","imgNWTK/triangle.png",""
"2525.900000035763","","","survey-number","86","3355181","0.0-15.0-0.2","female","20","China","99701","26306","neither","neither","imgNWTK/square.png","imgNWTK/triangle.png","noninfo","eq","3.22","{""undefined"":""99""}","","","","","","","","","","","","imgNWTK/triangle.png",""
"2131.199999988079","","","survey-number","87","3357314","0.0-15.0-0.3","female","20","China","99701","26306","neither","neither","imgNWTK/square.png","imgNWTK/triangle.png","noninfo","eq","3.22","{""undefined"":""0""}","","","","","","","","","","","","imgNWTK/triangle.png",""
"2126.199999988079","","","survey-number","88","3359443","0.0-15.0-0.4","female","20","China","99701","26306","neither","neither","imgNWTK/square.png","imgNWTK/triangle.png","noninfo","eq","3.22","{""undefined"":""0""}","","","","","","","","","","","","imgNWTK/triangle.png",""
"4392","","","survey-number","89","3363837","0.0-15.0-0.5","female","20","China","99701","26306","neither","neither","imgNWTK/square.png","imgNWTK/triangle.png","noninfo","eq","3.22","{""undefined"":""94""}","","","","","","","","","","","","imgNWTK/triangle.png",""
"2158.100000023842","","","survey-number","90","3365997","0.0-15.0-0.6","female","20","China","99701","26306","neither","neither","imgNWTK/square.png","imgNWTK/triangle.png","noninfo","eq","3.22","{""undefined"":""0""}","","","","","","","","","","","","imgNWTK/triangle.png",""
"6487.600000023842","","","survey-number","91","3372486","0.0-15.0-0.7","female","20","China","99701","26306","neither","neither","imgNWTK/square.png","imgNWTK/triangle.png","noninfo","eq","3.22","{""undefined"":""96""}","","","","","","","","","","","","imgNWTK/triangle.png",""
"2187.399999976158","","","survey-number","92","3374676","0.0-15.0-0.8","female","20","China","99701","26306","neither","neither","imgNWTK/square.png","imgNWTK/triangle.png","noninfo","eq","3.22","{""undefined"":""0""}","","","","","","","","","","","","imgNWTK/triangle.png",""
"2095","","","survey-number","93","3376773","0.0-15.0-0.9","female","20","China","99701","26306","neither","neither","imgNWTK/square.png","imgNWTK/triangle.png","noninfo","eq","3.22","{""undefined"":""0""}","","","","","","","","","","","","imgNWTK/triangle.png",""
"118706.5","","","survey-number","94","3495486","0.0-16.0","female","20","China","99701","26306","neither","neither","imgNWTK/square.png","imgNWTK/triangle.png","noninfo","eq","3.22","{""undefined"":""100""}","","","","","","","","","","","","","imgNWTK/triangle.png"
"4302.799999952316","","","survey-number","95","3499791","0.0-17.0","female","20","China","99701","26306","neither","neither","imgNWTK/square.png","imgNWTK/triangle.png","noninfo","eq","3.22","{""undefined"":""100""}","","","","","","","","","","","","","imgNWTK/square.png"
"75066","<p style=""text-align:left;"">Great! We are almost at the end of the study... (Please do not close the browser window yet.)</p><p> Your final points balance is 3224, which equals to a bonus payment of $3.22. Please collect your payment from Mathews Building Room 721 (Mon-Fri 9am-5pm); please email amy.x.li@unsw.edu.au at least 24 hours prior to collection so that this is ready for you.</p><p style=""text-align:left;"">To view the debriefing form, please click <a href=""./imgNWTK/debrief_3205.pdf"" target=""_blank"">here</a> to download a copy.</p><p style=""text-align:left;"">Then, <b>please click the below button</b> to confirm that you have received your debrief and to complete the study. Upon clicking ""Finish!"", your SONA credit will be automatically assigned.</p>","0","html-button-response","96","3574859","0.0-18.0","female","20","China","99701","26306","neither","neither","imgNWTK/square.png","imgNWTK/triangle.png","noninfo","eq","3.22","","","","","","","","","","","","","",""
