"rt","stimulus","button_pressed","trial_type","trial_index","time_elapsed","internal_node_id","gender","age","language","PID","sona_id","subStim","optStim","stim1","stim2","infoCond","optimCond","bonus","responses","banditTrial","choice","cue","feedback","estimateData","leftOption","rightOption","choiceName","leftInput","rightInput","key_press","postQ","singleEst"
"15381","<p>Thank you for signing up to participate in SONA Study 465! <br> During this study, please focus on the experiment and refrain from activities such as:</p>- <b>Switching to other tabs on your browser (this will be monitored via the experiment)</br> - Using your mobile phone/cell phone</br> - Communicating with others</br></br></b><p>This way, you are helping to provide data that is useful for psychological research. We thank you for your cooperation!</p>","0","html-button-response","0","15386","0.0-0.0","male","19","Australia","92416","25218","imgNWTK/triangle.png","imgNWTK/square.png","imgNWTK/triangle.png","imgNWTK/square.png","noninfo","optim","4.26","","","","","","","","","","","","","",""
"1543","<p>Welcome to the experiment!</p><p>You will now read some instructions about the task. Press the 'Next' button to continue. </p>","0","html-button-response","1","16931","0.0-1.0","male","19","Australia","92416","25218","imgNWTK/triangle.png","imgNWTK/square.png","imgNWTK/triangle.png","imgNWTK/square.png","noninfo","optim","4.26","","","","","","","","","","","","","",""
"16479","<p> On each trial throughout the experiment you will choose between two options, </br>a <b>Black Square </b> and <b> Black Triangle </b>, as seen below.</p><div><div style= 'float: left; width: 300px; margin: 10px 10px;'><img src= 'imgNWTK/square.png'></img></div><div style= 'float: right; width: 300px; margin: 10px 10px;'><img src= 'imgNWTK/triangle.png'></img></div></div><br/><br/><br/><br/><br/><br/><br/><br/><br/><br/><br/><p>Each option results in winning points or receiving 0 points.</br>There is a 50% chance of either winning or receiving 0 points.</p><p>You won't receive the outcome until after a <b> 20 second delay</b>.</p>","0","html-button-response","2","33411","0.0-2.0-0.0","male","19","Australia","92416","25218","imgNWTK/triangle.png","imgNWTK/square.png","imgNWTK/triangle.png","imgNWTK/square.png","noninfo","optim","4.26","","","","","","","","","","","","","",""
"16269","<img src= 'imgNWTK/NonInfoDiagram.png'></img><p>As seen above, whether you choose the square or triangle, you will receive a coloured circle after the choice. </p> <p>This circle will be on screen for 20 seconds until you win points or receive 0 points.</p><p>The coloured circle depends on which option you chose. </br> In the above example, choosing a triangle leads to a green circle and choosing the square leads to a red circle.</p>Please note: the circles in your task will be different to the above colours.</br></br>","0","html-button-response","3","49681","0.0-2.0-1.0","male","19","Australia","92416","25218","imgNWTK/triangle.png","imgNWTK/square.png","imgNWTK/triangle.png","imgNWTK/square.png","noninfo","optim","4.26","","","","","","","","","","","","","",""
"7178","<img src= 'cues/winTrials_noInfo.png' width = '1200'></img><p>To reiterate, 50% of the outcomes of each option will be WIN TRIALS, and the other 50% will be NO-WIN TRIALS.","0","html-button-response","4","56861","0.0-2.0-2.0","male","19","Australia","92416","25218","imgNWTK/triangle.png","imgNWTK/square.png","imgNWTK/triangle.png","imgNWTK/square.png","noninfo","optim","4.26","","","","","","","","","","","","","",""
"30163","<p> There will be <b>four blocks</b> in the experiment.</br>You will be given a short 15 second break between each block.</p><p><b>The points and the options will remain the same between the blocks.</b></p>The blocks are there just to give you a small break.</br></br></br></br><p>The points you earn in the task are also equal to <b> actual money</b>.</br> <b>1000 points is equal to $1 AUD</b></p><p>This is the rate you will be paid at the experiment's end.","0","html-button-response","5","87026","0.0-2.0-3.0","male","19","Australia","92416","25218","imgNWTK/triangle.png","imgNWTK/square.png","imgNWTK/triangle.png","imgNWTK/square.png","noninfo","optim","4.26","","","","","","","","","","","","","",""
"14747","","","survey-multi-choice","6","101781","0.0-2.0-4.0","male","19","Australia","92416","25218","imgNWTK/triangle.png","imgNWTK/square.png","imgNWTK/triangle.png","imgNWTK/square.png","noninfo","optim","4.26","{""Q0"":""20 Seconds"",""Q1"":""True"",""Q2"":""Equally""}","","","","","","","","","","","","",""
"1519","<p> Well done, all your answers were correct! <br> The experiment is about to start now. <br/> Click start to continue, or email your researcher <b>(amy.x.li@unsw.edu.au)</b> if you have any questions before starting.","0","html-button-response","7","103303","0.0-3.0","male","19","Australia","92416","25218","imgNWTK/triangle.png","imgNWTK/square.png","imgNWTK/triangle.png","imgNWTK/square.png","noninfo","optim","4.26","","","","","","","","","","","","","",""
"2184","","","bandit-task-exp6","8","129121","0.0-4.0-0.0","male","19","Australia","92416","25218","imgNWTK/triangle.png","imgNWTK/square.png","imgNWTK/triangle.png","imgNWTK/square.png","noninfo","optim","4.26","","1","2","2","119","null","imgNWTK/triangle.png","imgNWTK/square.png","imgNWTK/square.png","NaN","NaN","","",""
"10810","","","bandit-task-exp6","9","169534","0.0-4.0-0.1","male","19","Australia","92416","25218","imgNWTK/triangle.png","imgNWTK/square.png","imgNWTK/triangle.png","imgNWTK/square.png","noninfo","optim","4.26","","2","2","1","0","null","imgNWTK/square.png","imgNWTK/triangle.png","imgNWTK/square.png","NaN","NaN","","",""
"1342","","","bandit-task-exp6","10","193084","0.0-4.0-0.2","male","19","Australia","92416","25218","imgNWTK/triangle.png","imgNWTK/square.png","imgNWTK/triangle.png","imgNWTK/square.png","noninfo","optim","4.26","","3","1","1","82","null","imgNWTK/triangle.png","imgNWTK/square.png","imgNWTK/triangle.png","NaN","NaN","","",""
"1089","","","bandit-task-exp6","11","217463","0.0-4.0-0.3","male","19","Australia","92416","25218","imgNWTK/triangle.png","imgNWTK/square.png","imgNWTK/triangle.png","imgNWTK/square.png","noninfo","optim","4.26","","4","2","2","125","null","imgNWTK/square.png","imgNWTK/triangle.png","imgNWTK/square.png","NaN","NaN","","",""
"1267","","","bandit-task-exp6","12","242881","0.0-4.0-0.4","male","19","Australia","92416","25218","imgNWTK/triangle.png","imgNWTK/square.png","imgNWTK/triangle.png","imgNWTK/square.png","noninfo","optim","4.26","","5","2","2","124","null","imgNWTK/triangle.png","imgNWTK/square.png","imgNWTK/square.png","NaN","NaN","","",""
"725","","","bandit-task-exp6","13","265550","0.0-4.0-0.5","male","19","Australia","92416","25218","imgNWTK/triangle.png","imgNWTK/square.png","imgNWTK/triangle.png","imgNWTK/square.png","noninfo","optim","4.26","","6","2","1","0","null","imgNWTK/triangle.png","imgNWTK/square.png","imgNWTK/square.png","NaN","NaN","","",""
"778","","","bandit-task-exp6","14","288732","0.0-4.0-0.6","male","19","Australia","92416","25218","imgNWTK/triangle.png","imgNWTK/square.png","imgNWTK/triangle.png","imgNWTK/square.png","noninfo","optim","4.26","","7","1","2","0","null","imgNWTK/triangle.png","imgNWTK/square.png","imgNWTK/triangle.png","NaN","NaN","","",""
"785","","","bandit-task-exp6","15","311825","0.0-4.0-0.7","male","19","Australia","92416","25218","imgNWTK/triangle.png","imgNWTK/square.png","imgNWTK/triangle.png","imgNWTK/square.png","noninfo","optim","4.26","","8","2","2","122","null","imgNWTK/triangle.png","imgNWTK/square.png","imgNWTK/square.png","NaN","NaN","","",""
"903","","","bandit-task-exp6","16","334732","0.0-4.0-0.8","male","19","Australia","92416","25218","imgNWTK/triangle.png","imgNWTK/square.png","imgNWTK/triangle.png","imgNWTK/square.png","noninfo","optim","4.26","","9","2","1","0","null","imgNWTK/square.png","imgNWTK/triangle.png","imgNWTK/square.png","NaN","NaN","","",""
"873","","","bandit-task-exp6","17","357859","0.0-4.0-0.9","male","19","Australia","92416","25218","imgNWTK/triangle.png","imgNWTK/square.png","imgNWTK/triangle.png","imgNWTK/square.png","noninfo","optim","4.26","","10","2","1","0","null","imgNWTK/triangle.png","imgNWTK/square.png","imgNWTK/square.png","NaN","NaN","","",""
"770","","","bandit-task-exp6","18","380635","0.0-4.0-0.10","male","19","Australia","92416","25218","imgNWTK/triangle.png","imgNWTK/square.png","imgNWTK/triangle.png","imgNWTK/square.png","noninfo","optim","4.26","","11","2","2","124","null","imgNWTK/triangle.png","imgNWTK/square.png","imgNWTK/square.png","NaN","NaN","","",""
"658","","","bandit-task-exp6","19","403256","0.0-4.0-0.11","male","19","Australia","92416","25218","imgNWTK/triangle.png","imgNWTK/square.png","imgNWTK/triangle.png","imgNWTK/square.png","noninfo","optim","4.26","","12","2","2","125","null","imgNWTK/triangle.png","imgNWTK/square.png","imgNWTK/square.png","NaN","NaN","","",""
"872","","","bandit-task-exp6","20","425891","0.0-4.0-0.12","male","19","Australia","92416","25218","imgNWTK/triangle.png","imgNWTK/square.png","imgNWTK/triangle.png","imgNWTK/square.png","noninfo","optim","4.26","","13","2","2","124","null","imgNWTK/square.png","imgNWTK/triangle.png","imgNWTK/square.png","NaN","NaN","","",""
"762","","","bandit-task-exp6","21","448786","0.0-4.0-0.13","male","19","Australia","92416","25218","imgNWTK/triangle.png","imgNWTK/square.png","imgNWTK/triangle.png","imgNWTK/square.png","noninfo","optim","4.26","","14","2","2","110","null","imgNWTK/triangle.png","imgNWTK/square.png","imgNWTK/square.png","NaN","NaN","","",""
"881","","","bandit-task-exp6","22","471478","0.0-4.0-0.14","male","19","Australia","92416","25218","imgNWTK/triangle.png","imgNWTK/square.png","imgNWTK/triangle.png","imgNWTK/square.png","noninfo","optim","4.26","","15","2","1","0","null","imgNWTK/triangle.png","imgNWTK/square.png","imgNWTK/square.png","NaN","NaN","","",""
"null","<p><b> Congratulations, you have finished this block. </b> </p><p>Please take a short break before moving onto the next block.</p><p>The next block will start after a 15 second break.</p><b>Remember, the point rewards are the same between blocks","","html-keyboard-response","23","486494","0.0-5.0","male","19","Australia","92416","25218","imgNWTK/triangle.png","imgNWTK/square.png","imgNWTK/triangle.png","imgNWTK/square.png","noninfo","optim","4.26","","","","","","","","","","","","null","",""
"255406","","","bandit-task-exp6","24","764290","0.0-6.0-0.0","male","19","Australia","92416","25218","imgNWTK/triangle.png","imgNWTK/square.png","imgNWTK/triangle.png","imgNWTK/square.png","noninfo","optim","4.26","","16","2","2","127","null","imgNWTK/triangle.png","imgNWTK/square.png","imgNWTK/square.png","NaN","NaN","","",""
"898","","","bandit-task-exp6","25","787075","0.0-6.0-0.1","male","19","Australia","92416","25218","imgNWTK/triangle.png","imgNWTK/square.png","imgNWTK/triangle.png","imgNWTK/square.png","noninfo","optim","4.26","","17","2","1","0","null","imgNWTK/square.png","imgNWTK/triangle.png","imgNWTK/square.png","NaN","NaN","","",""
"865","","","bandit-task-exp6","26","810138","0.0-6.0-0.2","male","19","Australia","92416","25218","imgNWTK/triangle.png","imgNWTK/square.png","imgNWTK/triangle.png","imgNWTK/square.png","noninfo","optim","4.26","","18","1","1","90","null","imgNWTK/triangle.png","imgNWTK/square.png","imgNWTK/triangle.png","NaN","NaN","","",""
"903","","","bandit-task-exp6","27","833260","0.0-6.0-0.3","male","19","Australia","92416","25218","imgNWTK/triangle.png","imgNWTK/square.png","imgNWTK/triangle.png","imgNWTK/square.png","noninfo","optim","4.26","","19","2","2","129","null","imgNWTK/triangle.png","imgNWTK/square.png","imgNWTK/square.png","NaN","NaN","","",""
"816","","","bandit-task-exp6","28","884412","0.0-6.0-0.4","male","19","Australia","92416","25218","imgNWTK/triangle.png","imgNWTK/square.png","imgNWTK/triangle.png","imgNWTK/square.png","noninfo","optim","4.26","","20","2","2","114","null","imgNWTK/square.png","imgNWTK/triangle.png","imgNWTK/square.png","NaN","NaN","","",""
"933","","","bandit-task-exp6","29","908467","0.0-6.0-0.5","male","19","Australia","92416","25218","imgNWTK/triangle.png","imgNWTK/square.png","imgNWTK/triangle.png","imgNWTK/square.png","noninfo","optim","4.26","","21","2","1","0","null","imgNWTK/square.png","imgNWTK/triangle.png","imgNWTK/square.png","NaN","NaN","","",""
"711","","","bandit-task-exp6","30","933735","0.0-6.0-0.6","male","19","Australia","92416","25218","imgNWTK/triangle.png","imgNWTK/square.png","imgNWTK/triangle.png","imgNWTK/square.png","noninfo","optim","4.26","","22","2","1","0","null","imgNWTK/square.png","imgNWTK/triangle.png","imgNWTK/square.png","NaN","NaN","","",""
"1216","","","bandit-task-exp6","31","979339","0.0-6.0-0.7","male","19","Australia","92416","25218","imgNWTK/triangle.png","imgNWTK/square.png","imgNWTK/triangle.png","imgNWTK/square.png","noninfo","optim","4.26","","23","2","2","125","null","imgNWTK/triangle.png","imgNWTK/square.png","imgNWTK/square.png","NaN","NaN","","",""
"1624","","","bandit-task-exp6","32","1010497","0.0-6.0-0.8","male","19","Australia","92416","25218","imgNWTK/triangle.png","imgNWTK/square.png","imgNWTK/triangle.png","imgNWTK/square.png","noninfo","optim","4.26","","24","2","1","0","null","imgNWTK/triangle.png","imgNWTK/square.png","imgNWTK/square.png","NaN","NaN","","",""
"1238","","","bandit-task-exp6","33","1037056","0.0-6.0-0.9","male","19","Australia","92416","25218","imgNWTK/triangle.png","imgNWTK/square.png","imgNWTK/triangle.png","imgNWTK/square.png","noninfo","optim","4.26","","25","2","2","122","null","imgNWTK/square.png","imgNWTK/triangle.png","imgNWTK/square.png","NaN","NaN","","",""
"748","","","bandit-task-exp6","34","1062225","0.0-6.0-0.10","male","19","Australia","92416","25218","imgNWTK/triangle.png","imgNWTK/square.png","imgNWTK/triangle.png","imgNWTK/square.png","noninfo","optim","4.26","","26","2","2","123","null","imgNWTK/square.png","imgNWTK/triangle.png","imgNWTK/square.png","NaN","NaN","","",""
"12798","","","bandit-task-exp6","35","1100325","0.0-6.0-0.11","male","19","Australia","92416","25218","imgNWTK/triangle.png","imgNWTK/square.png","imgNWTK/triangle.png","imgNWTK/square.png","noninfo","optim","4.26","","27","2","2","112","null","imgNWTK/square.png","imgNWTK/triangle.png","imgNWTK/square.png","NaN","NaN","","",""
"147858","","","bandit-task-exp6","36","1273790","0.0-6.0-0.12","male","19","Australia","92416","25218","imgNWTK/triangle.png","imgNWTK/square.png","imgNWTK/triangle.png","imgNWTK/square.png","noninfo","optim","4.26","","28","2","1","0","null","imgNWTK/square.png","imgNWTK/triangle.png","imgNWTK/square.png","NaN","NaN","","",""
"867","","","bandit-task-exp6","37","1297073","0.0-6.0-0.13","male","19","Australia","92416","25218","imgNWTK/triangle.png","imgNWTK/square.png","imgNWTK/triangle.png","imgNWTK/square.png","noninfo","optim","4.26","","29","2","2","127","null","imgNWTK/triangle.png","imgNWTK/square.png","imgNWTK/square.png","NaN","NaN","","",""
"1327","","","bandit-task-exp6","38","1322955","0.0-6.0-0.14","male","19","Australia","92416","25218","imgNWTK/triangle.png","imgNWTK/square.png","imgNWTK/triangle.png","imgNWTK/square.png","noninfo","optim","4.26","","30","2","2","121","null","imgNWTK/square.png","imgNWTK/triangle.png","imgNWTK/square.png","NaN","NaN","","",""
"null","<p><b> Congratulations, you have finished this block. </b> </p><p>Please take a short break before moving onto the next block.</p><p>The next block will start after a 15 second break.</p><b>Remember, the point rewards are the same between blocks","","html-keyboard-response","39","1337965","0.0-7.0","male","19","Australia","92416","25218","imgNWTK/triangle.png","imgNWTK/square.png","imgNWTK/triangle.png","imgNWTK/square.png","noninfo","optim","4.26","","","","","","","","","","","","null","",""
"8651","","","bandit-task-exp6","40","1370823","0.0-8.0-0.0","male","19","Australia","92416","25218","imgNWTK/triangle.png","imgNWTK/square.png","imgNWTK/triangle.png","imgNWTK/square.png","noninfo","optim","4.26","","31","2","2","115","null","imgNWTK/triangle.png","imgNWTK/square.png","imgNWTK/square.png","NaN","NaN","","",""
"783","","","bandit-task-exp6","41","1395284","0.0-8.0-0.1","male","19","Australia","92416","25218","imgNWTK/triangle.png","imgNWTK/square.png","imgNWTK/triangle.png","imgNWTK/square.png","noninfo","optim","4.26","","32","2","1","0","null","imgNWTK/triangle.png","imgNWTK/square.png","imgNWTK/square.png","NaN","NaN","","",""
"807","","","bandit-task-exp6","42","1426305","0.0-8.0-0.2","male","19","Australia","92416","25218","imgNWTK/triangle.png","imgNWTK/square.png","imgNWTK/triangle.png","imgNWTK/square.png","noninfo","optim","4.26","","33","2","2","110","null","imgNWTK/triangle.png","imgNWTK/square.png","imgNWTK/square.png","NaN","NaN","","",""
"895","","","bandit-task-exp6","43","1449754","0.0-8.0-0.3","male","19","Australia","92416","25218","imgNWTK/triangle.png","imgNWTK/square.png","imgNWTK/triangle.png","imgNWTK/square.png","noninfo","optim","4.26","","34","2","2","122","null","imgNWTK/square.png","imgNWTK/triangle.png","imgNWTK/square.png","NaN","NaN","","",""
"724","","","bandit-task-exp6","44","1473945","0.0-8.0-0.4","male","19","Australia","92416","25218","imgNWTK/triangle.png","imgNWTK/square.png","imgNWTK/triangle.png","imgNWTK/square.png","noninfo","optim","4.26","","35","2","2","114","null","imgNWTK/square.png","imgNWTK/triangle.png","imgNWTK/square.png","NaN","NaN","","",""
"770","","","bandit-task-exp6","45","1499871","0.0-8.0-0.5","male","19","Australia","92416","25218","imgNWTK/triangle.png","imgNWTK/square.png","imgNWTK/triangle.png","imgNWTK/square.png","noninfo","optim","4.26","","36","2","2","112","null","imgNWTK/square.png","imgNWTK/triangle.png","imgNWTK/square.png","NaN","NaN","","",""
"985","","","bandit-task-exp6","46","1522918","0.0-8.0-0.6","male","19","Australia","92416","25218","imgNWTK/triangle.png","imgNWTK/square.png","imgNWTK/triangle.png","imgNWTK/square.png","noninfo","optim","4.26","","37","2","2","114","null","imgNWTK/triangle.png","imgNWTK/square.png","imgNWTK/square.png","NaN","NaN","","",""
"813","","","bandit-task-exp6","47","1545696","0.0-8.0-0.7","male","19","Australia","92416","25218","imgNWTK/triangle.png","imgNWTK/square.png","imgNWTK/triangle.png","imgNWTK/square.png","noninfo","optim","4.26","","38","2","2","112","null","imgNWTK/square.png","imgNWTK/triangle.png","imgNWTK/square.png","NaN","NaN","","",""
"665","","","bandit-task-exp6","48","1568512","0.0-8.0-0.8","male","19","Australia","92416","25218","imgNWTK/triangle.png","imgNWTK/square.png","imgNWTK/triangle.png","imgNWTK/square.png","noninfo","optim","4.26","","39","2","1","0","null","imgNWTK/square.png","imgNWTK/triangle.png","imgNWTK/square.png","NaN","NaN","","",""
"680","","","bandit-task-exp6","49","1592228","0.0-8.0-0.9","male","19","Australia","92416","25218","imgNWTK/triangle.png","imgNWTK/square.png","imgNWTK/triangle.png","imgNWTK/square.png","noninfo","optim","4.26","","40","2","1","0","null","imgNWTK/square.png","imgNWTK/triangle.png","imgNWTK/square.png","NaN","NaN","","",""
"673","","","bandit-task-exp6","50","1614843","0.0-8.0-0.10","male","19","Australia","92416","25218","imgNWTK/triangle.png","imgNWTK/square.png","imgNWTK/triangle.png","imgNWTK/square.png","noninfo","optim","4.26","","41","2","2","121","null","imgNWTK/square.png","imgNWTK/triangle.png","imgNWTK/square.png","NaN","NaN","","",""
"718","","","bandit-task-exp6","51","1639193","0.0-8.0-0.11","male","19","Australia","92416","25218","imgNWTK/triangle.png","imgNWTK/square.png","imgNWTK/triangle.png","imgNWTK/square.png","noninfo","optim","4.26","","42","2","1","0","null","imgNWTK/square.png","imgNWTK/triangle.png","imgNWTK/square.png","NaN","NaN","","",""
"1140","","","bandit-task-exp6","52","1662786","0.0-8.0-0.12","male","19","Australia","92416","25218","imgNWTK/triangle.png","imgNWTK/square.png","imgNWTK/triangle.png","imgNWTK/square.png","noninfo","optim","4.26","","43","2","2","120","null","imgNWTK/triangle.png","imgNWTK/square.png","imgNWTK/square.png","NaN","NaN","","",""
"873","","","bandit-task-exp6","53","1685533","0.0-8.0-0.13","male","19","Australia","92416","25218","imgNWTK/triangle.png","imgNWTK/square.png","imgNWTK/triangle.png","imgNWTK/square.png","noninfo","optim","4.26","","44","2","2","130","null","imgNWTK/square.png","imgNWTK/triangle.png","imgNWTK/square.png","NaN","NaN","","",""
"717","","","bandit-task-exp6","54","1712244","0.0-8.0-0.14","male","19","Australia","92416","25218","imgNWTK/triangle.png","imgNWTK/square.png","imgNWTK/triangle.png","imgNWTK/square.png","noninfo","optim","4.26","","45","2","2","123","null","imgNWTK/square.png","imgNWTK/triangle.png","imgNWTK/square.png","NaN","NaN","","",""
"null","<p><b> Congratulations, you have finished this block. </b> </p><p>Please take a short break before moving onto the next block.</p><p>The next block will start after a 15 second break.</p><b>Remember, the point rewards are the same between blocks","","html-keyboard-response","55","1727251","0.0-9.0","male","19","Australia","92416","25218","imgNWTK/triangle.png","imgNWTK/square.png","imgNWTK/triangle.png","imgNWTK/square.png","noninfo","optim","4.26","","","","","","","","","","","","null","",""
"23734","","","bandit-task-exp6","56","1773842","0.0-10.0-0.0","male","19","Australia","92416","25218","imgNWTK/triangle.png","imgNWTK/square.png","imgNWTK/triangle.png","imgNWTK/square.png","noninfo","optim","4.26","","46","2","2","122","null","imgNWTK/square.png","imgNWTK/triangle.png","imgNWTK/square.png","121","90","","",""
"11811","","","bandit-task-exp6","57","1808377","0.0-10.0-0.1","male","19","Australia","92416","25218","imgNWTK/triangle.png","imgNWTK/square.png","imgNWTK/triangle.png","imgNWTK/square.png","noninfo","optim","4.26","","47","2","2","112","null","imgNWTK/triangle.png","imgNWTK/square.png","imgNWTK/square.png","89","119","","",""
"7340","","","bandit-task-exp6","58","1838926","0.0-10.0-0.2","male","19","Australia","92416","25218","imgNWTK/triangle.png","imgNWTK/square.png","imgNWTK/triangle.png","imgNWTK/square.png","noninfo","optim","4.26","","48","2","1","0","null","imgNWTK/square.png","imgNWTK/triangle.png","imgNWTK/square.png","118","90","","",""
"11290","","","bandit-task-exp6","59","1874199","0.0-10.0-0.3","male","19","Australia","92416","25218","imgNWTK/triangle.png","imgNWTK/square.png","imgNWTK/triangle.png","imgNWTK/square.png","noninfo","optim","4.26","","49","2","2","130","null","imgNWTK/square.png","imgNWTK/triangle.png","imgNWTK/square.png","122","90","","",""
"8477","","","bandit-task-exp6","60","1910689","0.0-10.0-0.4","male","19","Australia","92416","25218","imgNWTK/triangle.png","imgNWTK/square.png","imgNWTK/triangle.png","imgNWTK/square.png","noninfo","optim","4.26","","50","2","2","118","null","imgNWTK/triangle.png","imgNWTK/square.png","imgNWTK/square.png","90","120","","",""
"7289","","","bandit-task-exp6","61","1940697","0.0-10.0-0.5","male","19","Australia","92416","25218","imgNWTK/triangle.png","imgNWTK/square.png","imgNWTK/triangle.png","imgNWTK/square.png","noninfo","optim","4.26","","51","2","1","0","null","imgNWTK/triangle.png","imgNWTK/square.png","imgNWTK/square.png","90","122","","",""
"15781","","","bandit-task-exp6","62","1980699","0.0-10.0-0.6","male","19","Australia","92416","25218","imgNWTK/triangle.png","imgNWTK/square.png","imgNWTK/triangle.png","imgNWTK/square.png","noninfo","optim","4.26","","52","2","2","113","null","imgNWTK/triangle.png","imgNWTK/square.png","imgNWTK/square.png","90","118","","",""
"6486","","","bandit-task-exp6","63","2009864","0.0-10.0-0.7","male","19","Australia","92416","25218","imgNWTK/triangle.png","imgNWTK/square.png","imgNWTK/triangle.png","imgNWTK/square.png","noninfo","optim","4.26","","53","2","1","0","null","imgNWTK/square.png","imgNWTK/triangle.png","imgNWTK/square.png","130","90","","",""
"7780","","","bandit-task-exp6","64","2040874","0.0-10.0-0.8","male","19","Australia","92416","25218","imgNWTK/triangle.png","imgNWTK/square.png","imgNWTK/triangle.png","imgNWTK/square.png","noninfo","optim","4.26","","54","2","1","0","null","imgNWTK/triangle.png","imgNWTK/square.png","imgNWTK/square.png","90","120","","",""
"4479","","","bandit-task-exp6","65","2068068","0.0-10.0-0.9","male","19","Australia","92416","25218","imgNWTK/triangle.png","imgNWTK/square.png","imgNWTK/triangle.png","imgNWTK/square.png","noninfo","optim","4.26","","55","2","2","128","null","imgNWTK/square.png","imgNWTK/triangle.png","imgNWTK/square.png","112","90","","",""
"5472","","","bandit-task-exp6","66","2096533","0.0-10.0-0.10","male","19","Australia","92416","25218","imgNWTK/triangle.png","imgNWTK/square.png","imgNWTK/triangle.png","imgNWTK/square.png","noninfo","optim","4.26","","56","2","1","0","null","imgNWTK/square.png","imgNWTK/triangle.png","imgNWTK/square.png","112","89","","",""
"9171","","","bandit-task-exp6","67","2128510","0.0-10.0-0.11","male","19","Australia","92416","25218","imgNWTK/triangle.png","imgNWTK/square.png","imgNWTK/triangle.png","imgNWTK/square.png","noninfo","optim","4.26","","57","2","1","0","null","imgNWTK/square.png","imgNWTK/triangle.png","imgNWTK/square.png","118","90","","",""
"6560","","","bandit-task-exp6","68","2158177","0.0-10.0-0.12","male","19","Australia","92416","25218","imgNWTK/triangle.png","imgNWTK/square.png","imgNWTK/triangle.png","imgNWTK/square.png","noninfo","optim","4.26","","58","2","1","0","null","imgNWTK/triangle.png","imgNWTK/square.png","imgNWTK/square.png","90","118","","",""
"13635","","","bandit-task-exp6","69","2194423","0.0-10.0-0.13","male","19","Australia","92416","25218","imgNWTK/triangle.png","imgNWTK/square.png","imgNWTK/triangle.png","imgNWTK/square.png","noninfo","optim","4.26","","59","2","1","0","null","imgNWTK/triangle.png","imgNWTK/square.png","imgNWTK/square.png","90","118","","",""
"4275","","","bandit-task-exp6","70","2220663","0.0-10.0-0.14","male","19","Australia","92416","25218","imgNWTK/triangle.png","imgNWTK/square.png","imgNWTK/triangle.png","imgNWTK/square.png","noninfo","optim","4.26","","60","2","1","0","null","imgNWTK/triangle.png","imgNWTK/square.png","imgNWTK/square.png","90","118","","",""
"2107","<p> Congratulations, you have finished the main part of the experiment. </p><p>Before you finish, we have a few short questions about the options and outcomes you saw in the task.</p>","0","html-button-response","71","2222773","0.0-11.0","male","19","Australia","92416","25218","imgNWTK/triangle.png","imgNWTK/square.png","imgNWTK/triangle.png","imgNWTK/square.png","noninfo","optim","4.26","","","","","","","","","","","","","",""
"8055","<p><b>Now, imagine that you clicked on the below button for another 10 trials (this includes <i> BOTH WIN and NO-WIN trials</i>).</p> <img src= 'imgNWTK/square.png'></img></br></br> <p><b>Please type the reward (number of points) you would expect to receive on every trial.</br> Click start to begin.</p>","0","html-button-response","72","2230829","0.0-12.0","male","19","Australia","92416","25218","imgNWTK/triangle.png","imgNWTK/square.png","imgNWTK/triangle.png","imgNWTK/square.png","noninfo","optim","4.26","","","","","","","","","","","","","",""
"7436.299999952316","","","survey-number","73","2238273","0.0-13.0-0.0","male","19","Australia","92416","25218","imgNWTK/triangle.png","imgNWTK/square.png","imgNWTK/triangle.png","imgNWTK/square.png","noninfo","optim","4.26","{""undefined"":""118""}","","","","","","","","","","","","imgNWTK/square.png",""
"6375.5","","","survey-number","74","2244652","0.0-13.0-0.1","male","19","Australia","92416","25218","imgNWTK/triangle.png","imgNWTK/square.png","imgNWTK/triangle.png","imgNWTK/square.png","noninfo","optim","4.26","{""undefined"":""130""}","","","","","","","","","","","","imgNWTK/square.png",""
"906.1999998092651","","","survey-number","75","2245563","0.0-13.0-0.2","male","19","Australia","92416","25218","imgNWTK/triangle.png","imgNWTK/square.png","imgNWTK/triangle.png","imgNWTK/square.png","noninfo","optim","4.26","{""undefined"":""0""}","","","","","","","","","","","","imgNWTK/square.png",""
"2542.4000000953674","","","survey-number","76","2248109","0.0-13.0-0.3","male","19","Australia","92416","25218","imgNWTK/triangle.png","imgNWTK/square.png","imgNWTK/triangle.png","imgNWTK/square.png","noninfo","optim","4.26","{""undefined"":""112""}","","","","","","","","","","","","imgNWTK/square.png",""
"871","","","survey-number","77","2248985","0.0-13.0-0.4","male","19","Australia","92416","25218","imgNWTK/triangle.png","imgNWTK/square.png","imgNWTK/triangle.png","imgNWTK/square.png","noninfo","optim","4.26","{""undefined"":""0""}","","","","","","","","","","","","imgNWTK/square.png",""
"471.5","","","survey-number","78","2249461","0.0-13.0-0.5","male","19","Australia","92416","25218","imgNWTK/triangle.png","imgNWTK/square.png","imgNWTK/triangle.png","imgNWTK/square.png","noninfo","optim","4.26","{""undefined"":""0""}","","","","","","","","","","","","imgNWTK/square.png",""
"4225.300000190735","","","survey-number","79","2253692","0.0-13.0-0.6","male","19","Australia","92416","25218","imgNWTK/triangle.png","imgNWTK/square.png","imgNWTK/triangle.png","imgNWTK/square.png","noninfo","optim","4.26","{""undefined"":""119""}","","","","","","","","","","","","imgNWTK/square.png",""
"659.4000000953674","","","survey-number","80","2254356","0.0-13.0-0.7","male","19","Australia","92416","25218","imgNWTK/triangle.png","imgNWTK/square.png","imgNWTK/triangle.png","imgNWTK/square.png","noninfo","optim","4.26","{""undefined"":""0""}","","","","","","","","","","","","imgNWTK/square.png",""
"2015.7999999523163","","","survey-number","81","2256375","0.0-13.0-0.8","male","19","Australia","92416","25218","imgNWTK/triangle.png","imgNWTK/square.png","imgNWTK/triangle.png","imgNWTK/square.png","noninfo","optim","4.26","{""undefined"":""121""}","","","","","","","","","","","","imgNWTK/square.png",""
"760.2000000476837","","","survey-number","82","2257139","0.0-13.0-0.9","male","19","Australia","92416","25218","imgNWTK/triangle.png","imgNWTK/square.png","imgNWTK/triangle.png","imgNWTK/square.png","noninfo","optim","4.26","{""undefined"":""0""}","","","","","","","","","","","","imgNWTK/square.png",""
"1834","<p><b>Imagine that you clicked on the below button for another 10 trials (this includes <i> both WIN and NO-WIN trials</i>).</p> <img src= 'imgNWTK/triangle.png'></img></br></br> <p><b>Please type the reward (number of points) you would expect to receive on every trial.</br> Click start to begin.</p>","0","html-button-response","83","2258975","0.0-14.0","male","19","Australia","92416","25218","imgNWTK/triangle.png","imgNWTK/square.png","imgNWTK/triangle.png","imgNWTK/square.png","noninfo","optim","4.26","","","","","","","","","","","","","",""
"947","","","survey-number","84","2259926","0.0-15.0-0.0","male","19","Australia","92416","25218","imgNWTK/triangle.png","imgNWTK/square.png","imgNWTK/triangle.png","imgNWTK/square.png","noninfo","optim","4.26","{""undefined"":""0""}","","","","","","","","","","","","imgNWTK/triangle.png",""
"638.2999999523163","","","survey-number","85","2260570","0.0-15.0-0.1","male","19","Australia","92416","25218","imgNWTK/triangle.png","imgNWTK/square.png","imgNWTK/triangle.png","imgNWTK/square.png","noninfo","optim","4.26","{""undefined"":""0""}","","","","","","","","","","","","imgNWTK/triangle.png",""
"1934.6000001430511","","","survey-number","86","2262508","0.0-15.0-0.2","male","19","Australia","92416","25218","imgNWTK/triangle.png","imgNWTK/square.png","imgNWTK/triangle.png","imgNWTK/square.png","noninfo","optim","4.26","{""undefined"":""88""}","","","","","","","","","","","","imgNWTK/triangle.png",""
"2161.2000000476837","","","survey-number","87","2264674","0.0-15.0-0.3","male","19","Australia","92416","25218","imgNWTK/triangle.png","imgNWTK/square.png","imgNWTK/triangle.png","imgNWTK/square.png","noninfo","optim","4.26","{""undefined"":""91""}","","","","","","","","","","","","imgNWTK/triangle.png",""
"1702.2000000476837","","","survey-number","88","2266380","0.0-15.0-0.4","male","19","Australia","92416","25218","imgNWTK/triangle.png","imgNWTK/square.png","imgNWTK/triangle.png","imgNWTK/square.png","noninfo","optim","4.26","{""undefined"":""0""}","","","","","","","","","","","","imgNWTK/triangle.png",""
"6126.5","","","survey-number","89","2272510","0.0-15.0-0.5","male","19","Australia","92416","25218","imgNWTK/triangle.png","imgNWTK/square.png","imgNWTK/triangle.png","imgNWTK/square.png","noninfo","optim","4.26","{""undefined"":""82""}","","","","","","","","","","","","imgNWTK/triangle.png",""
"854","","","survey-number","90","2273368","0.0-15.0-0.6","male","19","Australia","92416","25218","imgNWTK/triangle.png","imgNWTK/square.png","imgNWTK/triangle.png","imgNWTK/square.png","noninfo","optim","4.26","{""undefined"":""0""}","","","","","","","","","","","","imgNWTK/triangle.png",""
"2280","","","survey-number","91","2275652","0.0-15.0-0.7","male","19","Australia","92416","25218","imgNWTK/triangle.png","imgNWTK/square.png","imgNWTK/triangle.png","imgNWTK/square.png","noninfo","optim","4.26","{""undefined"":""90""}","","","","","","","","","","","","imgNWTK/triangle.png",""
"668.2000000476837","","","survey-number","92","2276324","0.0-15.0-0.8","male","19","Australia","92416","25218","imgNWTK/triangle.png","imgNWTK/square.png","imgNWTK/triangle.png","imgNWTK/square.png","noninfo","optim","4.26","{""undefined"":""0""}","","","","","","","","","","","","imgNWTK/triangle.png",""
"418.89999985694885","","","survey-number","93","2276746","0.0-15.0-0.9","male","19","Australia","92416","25218","imgNWTK/triangle.png","imgNWTK/square.png","imgNWTK/triangle.png","imgNWTK/square.png","noninfo","optim","4.26","{""undefined"":""0""}","","","","","","","","","","","","imgNWTK/triangle.png",""
"18084.299999952316","","","survey-number","94","2294862","0.0-16.0","male","19","Australia","92416","25218","imgNWTK/triangle.png","imgNWTK/square.png","imgNWTK/triangle.png","imgNWTK/square.png","noninfo","optim","4.26","{""undefined"":""88""}","","","","","","","","","","","","","imgNWTK/triangle.png"
"6462.299999952316","","","survey-number","95","2301330","0.0-17.0","male","19","Australia","92416","25218","imgNWTK/triangle.png","imgNWTK/square.png","imgNWTK/triangle.png","imgNWTK/square.png","noninfo","optim","4.26","{""undefined"":""118""}","","","","","","","","","","","","","imgNWTK/square.png"
"68488","<p style=""text-align:left;"">Great! We are almost at the end of the study... (Please do not close the browser window yet.)</p><p> Your final points balance is 4261, which equals to a bonus payment of $4.26. Please collect your payment from Mathews Building Room 721 (Mon-Fri 9am-5pm); please email amy.x.li@unsw.edu.au at least 24 hours prior to collection so that this is ready for you.</p><p style=""text-align:left;"">To view the debriefing form, please click <a href=""./imgNWTK/debrief_3205.pdf"" target=""_blank"">here</a> to download a copy.</p><p style=""text-align:left;"">Then, <b>please click the below button</b> to confirm that you have received your debrief and to complete the study. Upon clicking ""Finish!"", your SONA credit will be automatically assigned.</p>","0","html-button-response","96","2369820","0.0-18.0","male","19","Australia","92416","25218","imgNWTK/triangle.png","imgNWTK/square.png","imgNWTK/triangle.png","imgNWTK/square.png","noninfo","optim","4.26","","","","","","","","","","","","","",""
