"rt","stimulus","button_pressed","trial_type","trial_index","time_elapsed","internal_node_id","gender","age","language","PID","sona_id","subStim","optStim","stim1","stim2","infoCond","optimCond","bonus","responses","banditTrial","choice","cue","feedback","estimateData","leftOption","rightOption","choiceName","leftInput","rightInput","key_press","postQ","singleEst"
"4460","<p>Thank you for signing up to participate in SONA Study 465! <br> During this study, please focus on the experiment and refrain from activities such as:</p>- <b>Switching to other tabs on your browser (this will be monitored via the experiment)</br> - Using your mobile phone/cell phone</br> - Communicating with others</br></br></b><p>This way, you are helping to provide data that is useful for psychological research. We thank you for your cooperation!</p>","0","html-button-response","0","4468","0.0-0.0","female","18","australia","59345","24699","imgNWTK/square.png","imgNWTK/triangle.png","imgNWTK/square.png","imgNWTK/triangle.png","noninfo","optim","3.04","","","","","","","","","","","","","",""
"1755","<p>Welcome to the experiment!</p><p>You will now read some instructions about the task. Press the 'Next' button to continue. </p>","0","html-button-response","1","6225","0.0-1.0","female","18","australia","59345","24699","imgNWTK/square.png","imgNWTK/triangle.png","imgNWTK/square.png","imgNWTK/triangle.png","noninfo","optim","3.04","","","","","","","","","","","","","",""
"6023","<p> On each trial throughout the experiment you will choose between two options, </br>a <b>Black Square </b> and <b> Black Triangle </b>, as seen below.</p><div><div style= 'float: left; width: 300px; margin: 10px 10px;'><img src= 'imgNWTK/square.png'></img></div><div style= 'float: right; width: 300px; margin: 10px 10px;'><img src= 'imgNWTK/triangle.png'></img></div></div><br/><br/><br/><br/><br/><br/><br/><br/><br/><br/><br/><p>Each option results in winning points or receiving 0 points.</br>There is a 50% chance of either winning or receiving 0 points.</p><p>You won't receive the outcome until after a <b> 20 second delay</b>.</p>","0","html-button-response","2","12251","0.0-2.0-0.0","female","18","australia","59345","24699","imgNWTK/square.png","imgNWTK/triangle.png","imgNWTK/square.png","imgNWTK/triangle.png","noninfo","optim","3.04","","","","","","","","","","","","","",""
"8575","<img src= 'imgNWTK/NonInfoDiagram.png'></img><p>As seen above, whether you choose the square or triangle, you will receive a coloured circle after the choice. </p> <p>This circle will be on screen for 20 seconds until you win points or receive 0 points.</p><p>The coloured circle depends on which option you chose. </br> In the above example, choosing a triangle leads to a green circle and choosing the square leads to a red circle.</p>Please note: the circles in your task will be different to the above colours.</br></br>","0","html-button-response","3","20828","0.0-2.0-1.0","female","18","australia","59345","24699","imgNWTK/square.png","imgNWTK/triangle.png","imgNWTK/square.png","imgNWTK/triangle.png","noninfo","optim","3.04","","","","","","","","","","","","","",""
"5877","<img src= 'cues/winTrials_noInfo.png' width = '1200'></img><p>To reiterate, 50% of the outcomes of each option will be WIN TRIALS, and the other 50% will be NO-WIN TRIALS.","0","html-button-response","4","26707","0.0-2.0-2.0","female","18","australia","59345","24699","imgNWTK/square.png","imgNWTK/triangle.png","imgNWTK/square.png","imgNWTK/triangle.png","noninfo","optim","3.04","","","","","","","","","","","","","",""
"5097","<p> There will be <b>four blocks</b> in the experiment.</br>You will be given a short 15 second break between each block.</p><p><b>The points and the options will remain the same between the blocks.</b></p>The blocks are there just to give you a small break.</br></br></br></br><p>The points you earn in the task are also equal to <b> actual money</b>.</br> <b>1000 points is equal to $1 AUD</b></p><p>This is the rate you will be paid at the experiment's end.","0","html-button-response","5","31807","0.0-2.0-3.0","female","18","australia","59345","24699","imgNWTK/square.png","imgNWTK/triangle.png","imgNWTK/square.png","imgNWTK/triangle.png","noninfo","optim","3.04","","","","","","","","","","","","","",""
"6784","","","survey-multi-choice","6","38597","0.0-2.0-4.0","female","18","australia","59345","24699","imgNWTK/square.png","imgNWTK/triangle.png","imgNWTK/square.png","imgNWTK/triangle.png","noninfo","optim","3.04","{""Q0"":""20 Seconds"",""Q1"":""True"",""Q2"":""Equally""}","","","","","","","","","","","","",""
"1155","<p> Well done, all your answers were correct! <br> The experiment is about to start now. <br/> Click start to continue, or email your researcher <b>(amy.x.li@unsw.edu.au)</b> if you have any questions before starting.","0","html-button-response","7","39760","0.0-3.0","female","18","australia","59345","24699","imgNWTK/square.png","imgNWTK/triangle.png","imgNWTK/square.png","imgNWTK/triangle.png","noninfo","optim","3.04","","","","","","","","","","","","","",""
"1872","","","bandit-task-exp6","8","44806","0.0-4.0-0.0","female","18","australia","59345","24699","imgNWTK/square.png","imgNWTK/triangle.png","imgNWTK/square.png","imgNWTK/triangle.png","noninfo","optim","3.04","","1","2","1","0","null","imgNWTK/square.png","imgNWTK/triangle.png","imgNWTK/triangle.png","NaN","NaN","","",""
"856","","","bandit-task-exp6","9","48376","0.0-4.0-0.1","female","18","australia","59345","24699","imgNWTK/square.png","imgNWTK/triangle.png","imgNWTK/square.png","imgNWTK/triangle.png","noninfo","optim","3.04","","2","2","2","128","null","imgNWTK/square.png","imgNWTK/triangle.png","imgNWTK/triangle.png","NaN","NaN","","",""
"1616","","","bandit-task-exp6","10","52903","0.0-4.0-0.2","female","18","australia","59345","24699","imgNWTK/square.png","imgNWTK/triangle.png","imgNWTK/square.png","imgNWTK/triangle.png","noninfo","optim","3.04","","3","1","2","0","null","imgNWTK/triangle.png","imgNWTK/square.png","imgNWTK/square.png","NaN","NaN","","",""
"1954","","","bandit-task-exp6","11","58198","0.0-4.0-0.3","female","18","australia","59345","24699","imgNWTK/square.png","imgNWTK/triangle.png","imgNWTK/square.png","imgNWTK/triangle.png","noninfo","optim","3.04","","4","1","1","72","null","imgNWTK/square.png","imgNWTK/triangle.png","imgNWTK/square.png","NaN","NaN","","",""
"859","","","bandit-task-exp6","12","61680","0.0-4.0-0.4","female","18","australia","59345","24699","imgNWTK/square.png","imgNWTK/triangle.png","imgNWTK/square.png","imgNWTK/triangle.png","noninfo","optim","3.04","","5","2","2","118","null","imgNWTK/square.png","imgNWTK/triangle.png","imgNWTK/triangle.png","NaN","NaN","","",""
"982","","","bandit-task-exp6","13","65210","0.0-4.0-0.5","female","18","australia","59345","24699","imgNWTK/square.png","imgNWTK/triangle.png","imgNWTK/square.png","imgNWTK/triangle.png","noninfo","optim","3.04","","6","2","2","121","null","imgNWTK/triangle.png","imgNWTK/square.png","imgNWTK/triangle.png","NaN","NaN","","",""
"1058","","","bandit-task-exp6","14","68902","0.0-4.0-0.6","female","18","australia","59345","24699","imgNWTK/square.png","imgNWTK/triangle.png","imgNWTK/square.png","imgNWTK/triangle.png","noninfo","optim","3.04","","7","2","1","0","null","imgNWTK/triangle.png","imgNWTK/square.png","imgNWTK/triangle.png","NaN","NaN","","",""
"1126","","","bandit-task-exp6","15","72572","0.0-4.0-0.7","female","18","australia","59345","24699","imgNWTK/square.png","imgNWTK/triangle.png","imgNWTK/square.png","imgNWTK/triangle.png","noninfo","optim","3.04","","8","1","1","87","null","imgNWTK/square.png","imgNWTK/triangle.png","imgNWTK/square.png","NaN","NaN","","",""
"623","","","bandit-task-exp6","16","75845","0.0-4.0-0.8","female","18","australia","59345","24699","imgNWTK/square.png","imgNWTK/triangle.png","imgNWTK/square.png","imgNWTK/triangle.png","noninfo","optim","3.04","","9","1","1","84","null","imgNWTK/square.png","imgNWTK/triangle.png","imgNWTK/square.png","NaN","NaN","","",""
"1150","","","bandit-task-exp6","17","79359","0.0-4.0-0.9","female","18","australia","59345","24699","imgNWTK/square.png","imgNWTK/triangle.png","imgNWTK/square.png","imgNWTK/triangle.png","noninfo","optim","3.04","","10","1","2","0","null","imgNWTK/square.png","imgNWTK/triangle.png","imgNWTK/square.png","NaN","NaN","","",""
"634","","","bandit-task-exp6","18","82502","0.0-4.0-0.10","female","18","australia","59345","24699","imgNWTK/square.png","imgNWTK/triangle.png","imgNWTK/square.png","imgNWTK/triangle.png","noninfo","optim","3.04","","11","1","1","71","null","imgNWTK/triangle.png","imgNWTK/square.png","imgNWTK/square.png","NaN","NaN","","",""
"1183","","","bandit-task-exp6","19","86321","0.0-4.0-0.11","female","18","australia","59345","24699","imgNWTK/square.png","imgNWTK/triangle.png","imgNWTK/square.png","imgNWTK/triangle.png","noninfo","optim","3.04","","12","2","2","123","null","imgNWTK/square.png","imgNWTK/triangle.png","imgNWTK/triangle.png","NaN","NaN","","",""
"1267","","","bandit-task-exp6","20","90427","0.0-4.0-0.12","female","18","australia","59345","24699","imgNWTK/square.png","imgNWTK/triangle.png","imgNWTK/square.png","imgNWTK/triangle.png","noninfo","optim","3.04","","13","2","2","126","null","imgNWTK/triangle.png","imgNWTK/square.png","imgNWTK/triangle.png","NaN","NaN","","",""
"907","","","bandit-task-exp6","21","93979","0.0-4.0-0.13","female","18","australia","59345","24699","imgNWTK/square.png","imgNWTK/triangle.png","imgNWTK/square.png","imgNWTK/triangle.png","noninfo","optim","3.04","","14","1","2","0","null","imgNWTK/triangle.png","imgNWTK/square.png","imgNWTK/square.png","NaN","NaN","","",""
"755","","","bandit-task-exp6","22","97503","0.0-4.0-0.14","female","18","australia","59345","24699","imgNWTK/square.png","imgNWTK/triangle.png","imgNWTK/square.png","imgNWTK/triangle.png","noninfo","optim","3.04","","15","2","2","115","null","imgNWTK/triangle.png","imgNWTK/square.png","imgNWTK/triangle.png","NaN","NaN","","",""
"null","<p><b> Congratulations, you have finished this block. </b> </p><p>Please take a short break before moving onto the next block.</p><p>The next block will start after a 15 second break.</p><b>Remember, the point rewards are the same between blocks","","html-keyboard-response","23","112504","0.0-5.0","female","18","australia","59345","24699","imgNWTK/square.png","imgNWTK/triangle.png","imgNWTK/square.png","imgNWTK/triangle.png","noninfo","optim","3.04","","","","","","","","","","","","null","",""
"1508","","","bandit-task-exp6","24","116902","0.0-6.0-0.0","female","18","australia","59345","24699","imgNWTK/square.png","imgNWTK/triangle.png","imgNWTK/square.png","imgNWTK/triangle.png","noninfo","optim","3.04","","16","2","1","0","null","imgNWTK/triangle.png","imgNWTK/square.png","imgNWTK/triangle.png","NaN","NaN","","",""
"616","","","bandit-task-exp6","25","120035","0.0-6.0-0.1","female","18","australia","59345","24699","imgNWTK/square.png","imgNWTK/triangle.png","imgNWTK/square.png","imgNWTK/triangle.png","noninfo","optim","3.04","","17","1","2","0","null","imgNWTK/triangle.png","imgNWTK/square.png","imgNWTK/square.png","NaN","NaN","","",""
"739","","","bandit-task-exp6","26","123166","0.0-6.0-0.2","female","18","australia","59345","24699","imgNWTK/square.png","imgNWTK/triangle.png","imgNWTK/square.png","imgNWTK/triangle.png","noninfo","optim","3.04","","18","2","2","112","null","imgNWTK/square.png","imgNWTK/triangle.png","imgNWTK/triangle.png","NaN","NaN","","",""
"822","","","bandit-task-exp6","27","126415","0.0-6.0-0.3","female","18","australia","59345","24699","imgNWTK/square.png","imgNWTK/triangle.png","imgNWTK/square.png","imgNWTK/triangle.png","noninfo","optim","3.04","","19","2","1","0","null","imgNWTK/triangle.png","imgNWTK/square.png","imgNWTK/triangle.png","NaN","NaN","","",""
"1129","","","bandit-task-exp6","28","129880","0.0-6.0-0.4","female","18","australia","59345","24699","imgNWTK/square.png","imgNWTK/triangle.png","imgNWTK/square.png","imgNWTK/triangle.png","noninfo","optim","3.04","","20","2","1","0","null","imgNWTK/square.png","imgNWTK/triangle.png","imgNWTK/triangle.png","NaN","NaN","","",""
"1550","","","bandit-task-exp6","29","133855","0.0-6.0-0.5","female","18","australia","59345","24699","imgNWTK/square.png","imgNWTK/triangle.png","imgNWTK/square.png","imgNWTK/triangle.png","noninfo","optim","3.04","","21","1","1","72","null","imgNWTK/triangle.png","imgNWTK/square.png","imgNWTK/square.png","NaN","NaN","","",""
"1186","","","bandit-task-exp6","30","137515","0.0-6.0-0.6","female","18","australia","59345","24699","imgNWTK/square.png","imgNWTK/triangle.png","imgNWTK/square.png","imgNWTK/triangle.png","noninfo","optim","3.04","","22","1","2","0","null","imgNWTK/square.png","imgNWTK/triangle.png","imgNWTK/square.png","NaN","NaN","","",""
"1177","","","bandit-task-exp6","31","141540","0.0-6.0-0.7","female","18","australia","59345","24699","imgNWTK/square.png","imgNWTK/triangle.png","imgNWTK/square.png","imgNWTK/triangle.png","noninfo","optim","3.04","","23","2","2","126","null","imgNWTK/triangle.png","imgNWTK/square.png","imgNWTK/triangle.png","NaN","NaN","","",""
"665","","","bandit-task-exp6","32","145220","0.0-6.0-0.8","female","18","australia","59345","24699","imgNWTK/square.png","imgNWTK/triangle.png","imgNWTK/square.png","imgNWTK/triangle.png","noninfo","optim","3.04","","24","2","2","113","null","imgNWTK/triangle.png","imgNWTK/square.png","imgNWTK/triangle.png","NaN","NaN","","",""
"1083","","","bandit-task-exp6","33","148792","0.0-6.0-0.9","female","18","australia","59345","24699","imgNWTK/square.png","imgNWTK/triangle.png","imgNWTK/square.png","imgNWTK/triangle.png","noninfo","optim","3.04","","25","2","1","0","null","imgNWTK/triangle.png","imgNWTK/square.png","imgNWTK/triangle.png","NaN","NaN","","",""
"837","","","bandit-task-exp6","34","152089","0.0-6.0-0.10","female","18","australia","59345","24699","imgNWTK/square.png","imgNWTK/triangle.png","imgNWTK/square.png","imgNWTK/triangle.png","noninfo","optim","3.04","","26","2","2","111","null","imgNWTK/square.png","imgNWTK/triangle.png","imgNWTK/triangle.png","NaN","NaN","","",""
"970","","","bandit-task-exp6","35","155480","0.0-6.0-0.11","female","18","australia","59345","24699","imgNWTK/square.png","imgNWTK/triangle.png","imgNWTK/square.png","imgNWTK/triangle.png","noninfo","optim","3.04","","27","1","2","0","null","imgNWTK/square.png","imgNWTK/triangle.png","imgNWTK/square.png","NaN","NaN","","",""
"853","","","bandit-task-exp6","36","159036","0.0-6.0-0.12","female","18","australia","59345","24699","imgNWTK/square.png","imgNWTK/triangle.png","imgNWTK/square.png","imgNWTK/triangle.png","noninfo","optim","3.04","","28","2","2","116","null","imgNWTK/square.png","imgNWTK/triangle.png","imgNWTK/triangle.png","NaN","NaN","","",""
"946","","","bandit-task-exp6","37","162410","0.0-6.0-0.13","female","18","australia","59345","24699","imgNWTK/square.png","imgNWTK/triangle.png","imgNWTK/square.png","imgNWTK/triangle.png","noninfo","optim","3.04","","29","2","1","0","null","imgNWTK/square.png","imgNWTK/triangle.png","imgNWTK/triangle.png","NaN","NaN","","",""
"1032","","","bandit-task-exp6","38","165874","0.0-6.0-0.14","female","18","australia","59345","24699","imgNWTK/square.png","imgNWTK/triangle.png","imgNWTK/square.png","imgNWTK/triangle.png","noninfo","optim","3.04","","30","2","1","0","null","imgNWTK/triangle.png","imgNWTK/square.png","imgNWTK/triangle.png","NaN","NaN","","",""
"null","<p><b> Congratulations, you have finished this block. </b> </p><p>Please take a short break before moving onto the next block.</p><p>The next block will start after a 15 second break.</p><b>Remember, the point rewards are the same between blocks","","html-keyboard-response","39","180876","0.0-7.0","female","18","australia","59345","24699","imgNWTK/square.png","imgNWTK/triangle.png","imgNWTK/square.png","imgNWTK/triangle.png","noninfo","optim","3.04","","","","","","","","","","","","null","",""
"2332","","","bandit-task-exp6","40","186535","0.0-8.0-0.0","female","18","australia","59345","24699","imgNWTK/square.png","imgNWTK/triangle.png","imgNWTK/square.png","imgNWTK/triangle.png","noninfo","optim","3.04","","31","2","1","0","null","imgNWTK/triangle.png","imgNWTK/square.png","imgNWTK/triangle.png","NaN","NaN","","",""
"1132","","","bandit-task-exp6","41","191086","0.0-8.0-0.1","female","18","australia","59345","24699","imgNWTK/square.png","imgNWTK/triangle.png","imgNWTK/square.png","imgNWTK/triangle.png","noninfo","optim","3.04","","32","2","2","128","null","imgNWTK/square.png","imgNWTK/triangle.png","imgNWTK/triangle.png","NaN","NaN","","",""
"923","","","bandit-task-exp6","42","194574","0.0-8.0-0.2","female","18","australia","59345","24699","imgNWTK/square.png","imgNWTK/triangle.png","imgNWTK/square.png","imgNWTK/triangle.png","noninfo","optim","3.04","","33","2","1","0","null","imgNWTK/triangle.png","imgNWTK/square.png","imgNWTK/triangle.png","NaN","NaN","","",""
"1129","","","bandit-task-exp6","43","198825","0.0-8.0-0.3","female","18","australia","59345","24699","imgNWTK/square.png","imgNWTK/triangle.png","imgNWTK/square.png","imgNWTK/triangle.png","noninfo","optim","3.04","","34","2","2","120","null","imgNWTK/triangle.png","imgNWTK/square.png","imgNWTK/triangle.png","NaN","NaN","","",""
"1100","","","bandit-task-exp6","44","202890","0.0-8.0-0.4","female","18","australia","59345","24699","imgNWTK/square.png","imgNWTK/triangle.png","imgNWTK/square.png","imgNWTK/triangle.png","noninfo","optim","3.04","","35","2","1","0","null","imgNWTK/square.png","imgNWTK/triangle.png","imgNWTK/triangle.png","NaN","NaN","","",""
"1036","","","bandit-task-exp6","45","206297","0.0-8.0-0.5","female","18","australia","59345","24699","imgNWTK/square.png","imgNWTK/triangle.png","imgNWTK/square.png","imgNWTK/triangle.png","noninfo","optim","3.04","","36","1","1","72","null","imgNWTK/triangle.png","imgNWTK/square.png","imgNWTK/square.png","NaN","NaN","","",""
"842","","","bandit-task-exp6","46","209605","0.0-8.0-0.6","female","18","australia","59345","24699","imgNWTK/square.png","imgNWTK/triangle.png","imgNWTK/square.png","imgNWTK/triangle.png","noninfo","optim","3.04","","37","1","2","0","null","imgNWTK/square.png","imgNWTK/triangle.png","imgNWTK/square.png","NaN","NaN","","",""
"768","","","bandit-task-exp6","47","212981","0.0-8.0-0.7","female","18","australia","59345","24699","imgNWTK/square.png","imgNWTK/triangle.png","imgNWTK/square.png","imgNWTK/triangle.png","noninfo","optim","3.04","","38","1","1","84","null","imgNWTK/triangle.png","imgNWTK/square.png","imgNWTK/square.png","NaN","NaN","","",""
"1277","","","bandit-task-exp6","48","216659","0.0-8.0-0.8","female","18","australia","59345","24699","imgNWTK/square.png","imgNWTK/triangle.png","imgNWTK/square.png","imgNWTK/triangle.png","noninfo","optim","3.04","","39","2","1","0","null","imgNWTK/square.png","imgNWTK/triangle.png","imgNWTK/triangle.png","NaN","NaN","","",""
"644","","","bandit-task-exp6","49","220912","0.0-8.0-0.9","female","18","australia","59345","24699","imgNWTK/square.png","imgNWTK/triangle.png","imgNWTK/square.png","imgNWTK/triangle.png","noninfo","optim","3.04","","40","2","1","0","null","imgNWTK/triangle.png","imgNWTK/square.png","imgNWTK/triangle.png","NaN","NaN","","",""
"804","","","bandit-task-exp6","50","224485","0.0-8.0-0.10","female","18","australia","59345","24699","imgNWTK/square.png","imgNWTK/triangle.png","imgNWTK/square.png","imgNWTK/triangle.png","noninfo","optim","3.04","","41","2","1","0","null","imgNWTK/square.png","imgNWTK/triangle.png","imgNWTK/triangle.png","NaN","NaN","","",""
"1295","","","bandit-task-exp6","51","228065","0.0-8.0-0.11","female","18","australia","59345","24699","imgNWTK/square.png","imgNWTK/triangle.png","imgNWTK/square.png","imgNWTK/triangle.png","noninfo","optim","3.04","","42","1","2","0","null","imgNWTK/triangle.png","imgNWTK/square.png","imgNWTK/square.png","NaN","NaN","","",""
"629","","","bandit-task-exp6","52","231053","0.0-8.0-0.12","female","18","australia","59345","24699","imgNWTK/square.png","imgNWTK/triangle.png","imgNWTK/square.png","imgNWTK/triangle.png","noninfo","optim","3.04","","43","1","1","89","null","imgNWTK/square.png","imgNWTK/triangle.png","imgNWTK/square.png","NaN","NaN","","",""
"563","","","bandit-task-exp6","53","234074","0.0-8.0-0.13","female","18","australia","59345","24699","imgNWTK/square.png","imgNWTK/triangle.png","imgNWTK/square.png","imgNWTK/triangle.png","noninfo","optim","3.04","","44","1","1","71","null","imgNWTK/square.png","imgNWTK/triangle.png","imgNWTK/square.png","NaN","NaN","","",""
"583","","","bandit-task-exp6","54","237350","0.0-8.0-0.14","female","18","australia","59345","24699","imgNWTK/square.png","imgNWTK/triangle.png","imgNWTK/square.png","imgNWTK/triangle.png","noninfo","optim","3.04","","45","2","1","0","null","imgNWTK/triangle.png","imgNWTK/square.png","imgNWTK/triangle.png","NaN","NaN","","",""
"null","<p><b> Congratulations, you have finished this block. </b> </p><p>Please take a short break before moving onto the next block.</p><p>The next block will start after a 15 second break.</p><b>Remember, the point rewards are the same between blocks","","html-keyboard-response","55","252353","0.0-9.0","female","18","australia","59345","24699","imgNWTK/square.png","imgNWTK/triangle.png","imgNWTK/square.png","imgNWTK/triangle.png","noninfo","optim","3.04","","","","","","","","","","","","null","",""
"16080","","","bandit-task-exp6","56","271728","0.0-10.0-0.0","female","18","australia","59345","24699","imgNWTK/square.png","imgNWTK/triangle.png","imgNWTK/square.png","imgNWTK/triangle.png","noninfo","optim","3.04","","46","2","2","129","null","imgNWTK/square.png","imgNWTK/triangle.png","imgNWTK/triangle.png","89","100","","",""
"14589","","","bandit-task-exp6","57","289650","0.0-10.0-0.1","female","18","australia","59345","24699","imgNWTK/square.png","imgNWTK/triangle.png","imgNWTK/square.png","imgNWTK/triangle.png","noninfo","optim","3.04","","47","2","2","121","null","imgNWTK/square.png","imgNWTK/triangle.png","imgNWTK/triangle.png","80","1000","","",""
"10636","","","bandit-task-exp6","58","303193","0.0-10.0-0.2","female","18","australia","59345","24699","imgNWTK/square.png","imgNWTK/triangle.png","imgNWTK/square.png","imgNWTK/triangle.png","noninfo","optim","3.04","","48","1","2","0","null","imgNWTK/triangle.png","imgNWTK/square.png","imgNWTK/square.png","0","90","","",""
"11055","","","bandit-task-exp6","59","317281","0.0-10.0-0.3","female","18","australia","59345","24699","imgNWTK/square.png","imgNWTK/triangle.png","imgNWTK/square.png","imgNWTK/triangle.png","noninfo","optim","3.04","","49","1","1","90","null","imgNWTK/square.png","imgNWTK/triangle.png","imgNWTK/square.png","70","100","","",""
"9050","","","bandit-task-exp6","60","329609","0.0-10.0-0.4","female","18","australia","59345","24699","imgNWTK/square.png","imgNWTK/triangle.png","imgNWTK/square.png","imgNWTK/triangle.png","noninfo","optim","3.04","","50","2","1","0","null","imgNWTK/square.png","imgNWTK/triangle.png","imgNWTK/triangle.png","90","120","","",""
"5974","","","bandit-task-exp6","61","338514","0.0-10.0-0.5","female","18","australia","59345","24699","imgNWTK/square.png","imgNWTK/triangle.png","imgNWTK/square.png","imgNWTK/triangle.png","noninfo","optim","3.04","","51","1","2","0","null","imgNWTK/square.png","imgNWTK/triangle.png","imgNWTK/square.png","0","80","","",""
"4706","","","bandit-task-exp6","62","346569","0.0-10.0-0.6","female","18","australia","59345","24699","imgNWTK/square.png","imgNWTK/triangle.png","imgNWTK/square.png","imgNWTK/triangle.png","noninfo","optim","3.04","","52","2","2","118","null","imgNWTK/square.png","imgNWTK/triangle.png","imgNWTK/triangle.png","80","100","","",""
"6682","","","bandit-task-exp6","63","357779","0.0-10.0-0.7","female","18","australia","59345","24699","imgNWTK/square.png","imgNWTK/triangle.png","imgNWTK/square.png","imgNWTK/triangle.png","noninfo","optim","3.04","","53","2","1","0","null","imgNWTK/square.png","imgNWTK/triangle.png","imgNWTK/triangle.png","70","119","","",""
"9643","","","bandit-task-exp6","64","369929","0.0-10.0-0.8","female","18","australia","59345","24699","imgNWTK/square.png","imgNWTK/triangle.png","imgNWTK/square.png","imgNWTK/triangle.png","noninfo","optim","3.04","","54","2","1","0","null","imgNWTK/square.png","imgNWTK/triangle.png","imgNWTK/triangle.png","60","120","","",""
"5658","","","bandit-task-exp6","65","378286","0.0-10.0-0.9","female","18","australia","59345","24699","imgNWTK/square.png","imgNWTK/triangle.png","imgNWTK/square.png","imgNWTK/triangle.png","noninfo","optim","3.04","","55","1","2","0","null","imgNWTK/square.png","imgNWTK/triangle.png","imgNWTK/square.png","0","100","","",""
"4431","","","bandit-task-exp6","66","385225","0.0-10.0-0.10","female","18","australia","59345","24699","imgNWTK/square.png","imgNWTK/triangle.png","imgNWTK/square.png","imgNWTK/triangle.png","noninfo","optim","3.04","","56","2","1","0","null","imgNWTK/square.png","imgNWTK/triangle.png","imgNWTK/triangle.png","0","0","","",""
"8397","","","bandit-task-exp6","67","396204","0.0-10.0-0.11","female","18","australia","59345","24699","imgNWTK/square.png","imgNWTK/triangle.png","imgNWTK/square.png","imgNWTK/triangle.png","noninfo","optim","3.04","","57","2","2","121","null","imgNWTK/square.png","imgNWTK/triangle.png","imgNWTK/triangle.png","60","100","","",""
"5045","","","bandit-task-exp6","68","404016","0.0-10.0-0.12","female","18","australia","59345","24699","imgNWTK/square.png","imgNWTK/triangle.png","imgNWTK/square.png","imgNWTK/triangle.png","noninfo","optim","3.04","","58","1","1","78","null","imgNWTK/triangle.png","imgNWTK/square.png","imgNWTK/square.png","50","100","","",""
"4251","","","bandit-task-exp6","69","411076","0.0-10.0-0.13","female","18","australia","59345","24699","imgNWTK/square.png","imgNWTK/triangle.png","imgNWTK/square.png","imgNWTK/triangle.png","noninfo","optim","3.04","","59","2","2","126","null","imgNWTK/square.png","imgNWTK/triangle.png","imgNWTK/triangle.png","40","80","","",""
"4513","","","bandit-task-exp6","70","418063","0.0-10.0-0.14","female","18","australia","59345","24699","imgNWTK/square.png","imgNWTK/triangle.png","imgNWTK/square.png","imgNWTK/triangle.png","noninfo","optim","3.04","","60","2","1","0","null","imgNWTK/square.png","imgNWTK/triangle.png","imgNWTK/triangle.png","30","100","","",""
"2061","<p> Congratulations, you have finished the main part of the experiment. </p><p>Before you finish, we have a few short questions about the options and outcomes you saw in the task.</p>","0","html-button-response","71","420126","0.0-11.0","female","18","australia","59345","24699","imgNWTK/square.png","imgNWTK/triangle.png","imgNWTK/square.png","imgNWTK/triangle.png","noninfo","optim","3.04","","","","","","","","","","","","","",""
"6547","<p><b>Now, imagine that you clicked on the below button for another 10 trials (this includes <i> BOTH WIN and NO-WIN trials</i>).</p> <img src= 'imgNWTK/triangle.png'></img></br></br> <p><b>Please type the reward (number of points) you would expect to receive on every trial.</br> Click start to begin.</p>","0","html-button-response","72","426676","0.0-12.0","female","18","australia","59345","24699","imgNWTK/square.png","imgNWTK/triangle.png","imgNWTK/square.png","imgNWTK/triangle.png","noninfo","optim","3.04","","","","","","","","","","","","","",""
"6148.600000023842","","","survey-number","73","432830","0.0-13.0-0.0","female","18","australia","59345","24699","imgNWTK/square.png","imgNWTK/triangle.png","imgNWTK/square.png","imgNWTK/triangle.png","noninfo","optim","3.04","{""undefined"":""119""}","","","","","","","","","","","","imgNWTK/triangle.png",""
"5864.900000035763","","","survey-number","74","438701","0.0-13.0-0.1","female","18","australia","59345","24699","imgNWTK/square.png","imgNWTK/triangle.png","imgNWTK/square.png","imgNWTK/triangle.png","noninfo","optim","3.04","{""undefined"":""0""}","","","","","","","","","","","","imgNWTK/triangle.png",""
"5554.5","","","survey-number","75","444262","0.0-13.0-0.2","female","18","australia","59345","24699","imgNWTK/square.png","imgNWTK/triangle.png","imgNWTK/square.png","imgNWTK/triangle.png","noninfo","optim","3.04","{""undefined"":""100""}","","","","","","","","","","","","imgNWTK/triangle.png",""
"3793.2999999523163","","","survey-number","76","448059","0.0-13.0-0.3","female","18","australia","59345","24699","imgNWTK/square.png","imgNWTK/triangle.png","imgNWTK/square.png","imgNWTK/triangle.png","noninfo","optim","3.04","{""undefined"":""89""}","","","","","","","","","","","","imgNWTK/triangle.png",""
"3611","","","survey-number","77","451675","0.0-13.0-0.4","female","18","australia","59345","24699","imgNWTK/square.png","imgNWTK/triangle.png","imgNWTK/square.png","imgNWTK/triangle.png","noninfo","optim","3.04","{""undefined"":""114""}","","","","","","","","","","","","imgNWTK/triangle.png",""
"2098.699999988079","","","survey-number","78","453779","0.0-13.0-0.5","female","18","australia","59345","24699","imgNWTK/square.png","imgNWTK/triangle.png","imgNWTK/square.png","imgNWTK/triangle.png","noninfo","optim","3.04","{""undefined"":""108""}","","","","","","","","","","","","imgNWTK/triangle.png",""
"751.1000000238419","","","survey-number","79","454536","0.0-13.0-0.6","female","18","australia","59345","24699","imgNWTK/square.png","imgNWTK/triangle.png","imgNWTK/square.png","imgNWTK/triangle.png","noninfo","optim","3.04","{""undefined"":""0""}","","","","","","","","","","","","imgNWTK/triangle.png",""
"1380.5999999642372","","","survey-number","80","455921","0.0-13.0-0.7","female","18","australia","59345","24699","imgNWTK/square.png","imgNWTK/triangle.png","imgNWTK/square.png","imgNWTK/triangle.png","noninfo","optim","3.04","{""undefined"":""0""}","","","","","","","","","","","","imgNWTK/triangle.png",""
"2475.5","","","survey-number","81","458402","0.0-13.0-0.8","female","18","australia","59345","24699","imgNWTK/square.png","imgNWTK/triangle.png","imgNWTK/square.png","imgNWTK/triangle.png","noninfo","optim","3.04","{""undefined"":""119""}","","","","","","","","","","","","imgNWTK/triangle.png",""
"1715.8999999761581","","","survey-number","82","460122","0.0-13.0-0.9","female","18","australia","59345","24699","imgNWTK/square.png","imgNWTK/triangle.png","imgNWTK/square.png","imgNWTK/triangle.png","noninfo","optim","3.04","{""undefined"":""0""}","","","","","","","","","","","","imgNWTK/triangle.png",""
"1532","<p><b>Imagine that you clicked on the below button for another 10 trials (this includes <i> both WIN and NO-WIN trials</i>).</p> <img src= 'imgNWTK/square.png'></img></br></br> <p><b>Please type the reward (number of points) you would expect to receive on every trial.</br> Click start to begin.</p>","0","html-button-response","83","461656","0.0-14.0","female","18","australia","59345","24699","imgNWTK/square.png","imgNWTK/triangle.png","imgNWTK/square.png","imgNWTK/triangle.png","noninfo","optim","3.04","","","","","","","","","","","","","",""
"999.8000000119209","","","survey-number","84","462660","0.0-15.0-0.0","female","18","australia","59345","24699","imgNWTK/square.png","imgNWTK/triangle.png","imgNWTK/square.png","imgNWTK/triangle.png","noninfo","optim","3.04","{""undefined"":""0""}","","","","","","","","","","","","imgNWTK/square.png",""
"3242.2999999523163","","","survey-number","85","465907","0.0-15.0-0.1","female","18","australia","59345","24699","imgNWTK/square.png","imgNWTK/triangle.png","imgNWTK/square.png","imgNWTK/triangle.png","noninfo","optim","3.04","{""undefined"":""68""}","","","","","","","","","","","","imgNWTK/square.png",""
"1077.8999999761581","","","survey-number","86","466990","0.0-15.0-0.2","female","18","australia","59345","24699","imgNWTK/square.png","imgNWTK/triangle.png","imgNWTK/square.png","imgNWTK/triangle.png","noninfo","optim","3.04","{""undefined"":""69""}","","","","","","","","","","","","imgNWTK/square.png",""
"428.60000002384186","","","survey-number","87","467422","0.0-15.0-0.3","female","18","australia","59345","24699","imgNWTK/square.png","imgNWTK/triangle.png","imgNWTK/square.png","imgNWTK/triangle.png","noninfo","optim","3.04","{""undefined"":""0""}","","","","","","","","","","","","imgNWTK/square.png",""
"2264.5","","","survey-number","88","469691","0.0-15.0-0.4","female","18","australia","59345","24699","imgNWTK/square.png","imgNWTK/triangle.png","imgNWTK/square.png","imgNWTK/triangle.png","noninfo","optim","3.04","{""undefined"":""74""}","","","","","","","","","","","","imgNWTK/square.png",""
"1251.199999988079","","","survey-number","89","470947","0.0-15.0-0.5","female","18","australia","59345","24699","imgNWTK/square.png","imgNWTK/triangle.png","imgNWTK/square.png","imgNWTK/triangle.png","noninfo","optim","3.04","{""undefined"":""0""}","","","","","","","","","","","","imgNWTK/square.png",""
"2308.899999976158","","","survey-number","90","473260","0.0-15.0-0.6","female","18","australia","59345","24699","imgNWTK/square.png","imgNWTK/triangle.png","imgNWTK/square.png","imgNWTK/triangle.png","noninfo","optim","3.04","{""undefined"":""83""}","","","","","","","","","","","","imgNWTK/square.png",""
"2238.100000023842","","","survey-number","91","475503","0.0-15.0-0.7","female","18","australia","59345","24699","imgNWTK/square.png","imgNWTK/triangle.png","imgNWTK/square.png","imgNWTK/triangle.png","noninfo","optim","3.04","{""undefined"":""79""}","","","","","","","","","","","","imgNWTK/square.png",""
"577.3000000119209","","","survey-number","92","476086","0.0-15.0-0.8","female","18","australia","59345","24699","imgNWTK/square.png","imgNWTK/triangle.png","imgNWTK/square.png","imgNWTK/triangle.png","noninfo","optim","3.04","{""undefined"":""0""}","","","","","","","","","","","","imgNWTK/square.png",""
"492.89999997615814","","","survey-number","93","476586","0.0-15.0-0.9","female","18","australia","59345","24699","imgNWTK/square.png","imgNWTK/triangle.png","imgNWTK/square.png","imgNWTK/triangle.png","noninfo","optim","3.04","{""undefined"":""0""}","","","","","","","","","","","","imgNWTK/square.png",""
"13652.799999952316","","","survey-number","94","490245","0.0-16.0","female","18","australia","59345","24699","imgNWTK/square.png","imgNWTK/triangle.png","imgNWTK/square.png","imgNWTK/triangle.png","noninfo","optim","3.04","{""undefined"":""89""}","","","","","","","","","","","","","imgNWTK/square.png"
"2507.300000011921","","","survey-number","95","492759","0.0-17.0","female","18","australia","59345","24699","imgNWTK/square.png","imgNWTK/triangle.png","imgNWTK/square.png","imgNWTK/triangle.png","noninfo","optim","3.04","{""undefined"":""119""}","","","","","","","","","","","","","imgNWTK/triangle.png"
"7444","<p style=""text-align:left;"">Great! We are almost at the end of the study... (Please do not close the browser window yet.)</p><p> Your final points balance is 3042, which equals to a bonus payment of $3.04. Please collect your payment from Mathews Building Room 721 (Mon-Fri 9am-5pm); please email amy.x.li@unsw.edu.au at least 24 hours prior to collection so that this is ready for you.</p><p style=""text-align:left;"">To view the debriefing form, please click <a href=""./imgNWTK/debrief_3205.pdf"" target=""_blank"">here</a> to download a copy.</p><p style=""text-align:left;"">Then, <b>please click the below button</b> to confirm that you have received your debrief and to complete the study. Upon clicking ""Finish!"", your SONA credit will be automatically assigned.</p>","0","html-button-response","96","500205","0.0-18.0","female","18","australia","59345","24699","imgNWTK/square.png","imgNWTK/triangle.png","imgNWTK/square.png","imgNWTK/triangle.png","noninfo","optim","3.04","","","","","","","","","","","","","",""
