"rt","stimulus","button_pressed","trial_type","trial_index","time_elapsed","internal_node_id","gender","age","language","PID","sona_id","subStim","optStim","stim1","stim2","infoCond","optimCond","bonus","responses","banditTrial","choice","cue","feedback","estimateData","leftOption","rightOption","choiceName","leftInput","rightInput","key_press","postQ","singleEst"
"18341","<p>Thank you for signing up to participate in SONA Study 476! <br> During this study, please focus on the experiment and refrain from activities such as:</p>- <b>Switching to other tabs on your browser (this will be monitored via the experiment)</br> - Using your mobile phone/cell phone</br> - Communicating with others</br></br></b><p>This way, you are helping to provide data that is useful for psychological research. We thank you for your cooperation!</p>","0","html-button-response","0","18347","0.0-0.0","female","18","australia","26279","24679","neither","neither","imgNWTK/KeepItSecret.jpg","imgNWTK/FindOutNow.jpg","info","eq","2.71","","","","","","","","","","","","","",""
"704","<p>Welcome to the experiment!</p><p>You will now read some instructions about the task. Press the 'Next' button to continue. </p>","0","html-button-response","1","19054","0.0-1.0","female","18","australia","26279","24679","neither","neither","imgNWTK/KeepItSecret.jpg","imgNWTK/FindOutNow.jpg","info","eq","2.71","","","","","","","","","","","","","",""
"6133","<p> On each trial throughout the experiment you will choose between the options </br><b> Find Out Now </b> and <b> Keep It Secret </b>, as shown below.</p><div><div style= 'float: left; width: 300px; margin: 10px 10px;'><img src= 'imgNWTK/KeepItSecret.jpg'></img></div><div style= 'float: right; width: 300px; margin: 10px 10px;'><img src= 'imgNWTK/FindOutNow.jpg'></img></div></div><br/><br/><br/><br/><br/><br/><br/><br/><br/><br/><br/><p>Each option results in winning points or receiving 0 points.</br>There is a 50% chance of either winning or receiving 0 points.</p><p>You won't receive the outcome until after a <b> 20 second delay</b>. However, selecting the Find Out Now option will allow you to find out about the outcome early, whereas the Keep It Secret option will not. </p>","0","html-button-response","2","25189","0.0-2.0-0.0","female","18","australia","26279","24679","neither","neither","imgNWTK/KeepItSecret.jpg","imgNWTK/FindOutNow.jpg","info","eq","2.71","","","","","","","","","","","","","",""
"1854","<img src= 'cues/Experiment6.png'></img><p>As seen above, when choosing the <b>'Find Out Now'</b> option, you will receive either a happy face or sad face.</br>The happy face means you will win points after the delay, whereas the sad face means you will receive 0 points.</br></p><p> When choosing the <b> 'Keep it Secret' </b> option you will receive a confused face.</br> This face appears regardless of whether you are going to win points or not. </p>In short, choosing 'Find Out Now' allows you to find out the outcome before you experience it (after the delay).</br></br>","0","html-button-response","3","27046","0.0-2.0-1.0","female","18","australia","26279","24679","neither","neither","imgNWTK/KeepItSecret.jpg","imgNWTK/FindOutNow.jpg","info","eq","2.71","","","","","","","","","","","","","",""
"4946","<img src= 'cues/winTrials_info.png' width = '1200'></img><p>To reiterate, 50% of the outcomes of each option will be WIN TRIALS, and the other 50% will be NO-WIN TRIALS.","0","html-button-response","4","31994","0.0-2.0-2.0","female","18","australia","26279","24679","neither","neither","imgNWTK/KeepItSecret.jpg","imgNWTK/FindOutNow.jpg","info","eq","2.71","","","","","","","","","","","","","",""
"12673","<p> There will be <b>four blocks</b> in the experiment.</br>You will be given a short 15 second break between each block.</p><p><b>The points and the options will remain the same between the blocks.</b></p>The blocks are there just to give you a small break.</br></br><p>The points you earn in the task are also equal to <b> actual money</b>.</br> <b>1000 points is equal to $1.</b></p><p>This is the rate you will be paid at the experiment's end.","0","html-button-response","5","44670","0.0-2.0-3.0","female","18","australia","26279","24679","neither","neither","imgNWTK/KeepItSecret.jpg","imgNWTK/FindOutNow.jpg","info","eq","2.71","","","","","","","","","","","","","",""
"9916","","","survey-multi-choice","6","54602","0.0-2.0-4.0","female","18","australia","26279","24679","neither","neither","imgNWTK/KeepItSecret.jpg","imgNWTK/FindOutNow.jpg","info","eq","2.71","{""Q0"":""20 Seconds"",""Q1"":""True"",""Q2"":""Equally"",""Q3"":""True""}","","","","","","","","","","","","",""
"3141","<p> Well done, all your answers were correct! <br> The experiment is about to start now. <br/> Click start to continue, or email your researcher <b>(amy.x.li@unsw.edu.au)</b> if you have any questions before starting.","0","html-button-response","7","57749","0.0-3.0","female","18","australia","26279","24679","neither","neither","imgNWTK/KeepItSecret.jpg","imgNWTK/FindOutNow.jpg","info","eq","2.71","","","","","","","","","","","","","",""
"2347","","","bandit-task-exp6","8","82782","0.0-4.0-0.0","female","18","australia","26279","24679","neither","neither","imgNWTK/KeepItSecret.jpg","imgNWTK/FindOutNow.jpg","info","eq","2.71","","1","1","1","91","null","imgNWTK/FindOutNow.jpg","imgNWTK/KeepItSecret.jpg","imgNWTK/KeepItSecret.jpg","NaN","NaN","","",""
"5667","","","bandit-task-exp6","9","110970","0.0-4.0-0.1","female","18","australia","26279","24679","neither","neither","imgNWTK/KeepItSecret.jpg","imgNWTK/FindOutNow.jpg","info","eq","2.71","","2","1","1","94","null","imgNWTK/KeepItSecret.jpg","imgNWTK/FindOutNow.jpg","imgNWTK/KeepItSecret.jpg","NaN","NaN","","",""
"1994","","","bandit-task-exp6","10","135324","0.0-4.0-0.2","female","18","australia","26279","24679","neither","neither","imgNWTK/KeepItSecret.jpg","imgNWTK/FindOutNow.jpg","info","eq","2.71","","3","2","1","0","null","imgNWTK/KeepItSecret.jpg","imgNWTK/FindOutNow.jpg","imgNWTK/FindOutNow.jpg","NaN","NaN","","",""
"11977","","","bandit-task-exp6","11","178933","0.0-4.0-0.3","female","18","australia","26279","24679","neither","neither","imgNWTK/KeepItSecret.jpg","imgNWTK/FindOutNow.jpg","info","eq","2.71","","4","2","2","98","null","imgNWTK/FindOutNow.jpg","imgNWTK/KeepItSecret.jpg","imgNWTK/FindOutNow.jpg","NaN","NaN","","",""
"6143","","","bandit-task-exp6","12","207667","0.0-4.0-0.4","female","18","australia","26279","24679","neither","neither","imgNWTK/KeepItSecret.jpg","imgNWTK/FindOutNow.jpg","info","eq","2.71","","5","2","1","0","null","imgNWTK/FindOutNow.jpg","imgNWTK/KeepItSecret.jpg","imgNWTK/FindOutNow.jpg","NaN","NaN","","",""
"28314","","","bandit-task-exp6","13","283265","0.0-4.0-0.5","female","18","australia","26279","24679","neither","neither","imgNWTK/KeepItSecret.jpg","imgNWTK/FindOutNow.jpg","info","eq","2.71","","6","2","1","0","null","imgNWTK/KeepItSecret.jpg","imgNWTK/FindOutNow.jpg","imgNWTK/FindOutNow.jpg","NaN","NaN","","",""
"8082","","","bandit-task-exp6","14","313890","0.0-4.0-0.6","female","18","australia","26279","24679","neither","neither","imgNWTK/KeepItSecret.jpg","imgNWTK/FindOutNow.jpg","info","eq","2.71","","7","1","2","0","null","imgNWTK/FindOutNow.jpg","imgNWTK/KeepItSecret.jpg","imgNWTK/KeepItSecret.jpg","NaN","NaN","","",""
"49674","","","bandit-task-exp6","15","386094","0.0-4.0-0.7","female","18","australia","26279","24679","neither","neither","imgNWTK/KeepItSecret.jpg","imgNWTK/FindOutNow.jpg","info","eq","2.71","","8","1","1","103","null","imgNWTK/FindOutNow.jpg","imgNWTK/KeepItSecret.jpg","imgNWTK/KeepItSecret.jpg","NaN","NaN","","",""
"7666","","","bandit-task-exp6","16","446575","0.0-4.0-0.8","female","18","australia","26279","24679","neither","neither","imgNWTK/KeepItSecret.jpg","imgNWTK/FindOutNow.jpg","info","eq","2.71","","9","2","1","0","null","imgNWTK/KeepItSecret.jpg","imgNWTK/FindOutNow.jpg","imgNWTK/FindOutNow.jpg","NaN","NaN","","",""
"963","","","bandit-task-exp6","17","470508","0.0-4.0-0.9","female","18","australia","26279","24679","neither","neither","imgNWTK/KeepItSecret.jpg","imgNWTK/FindOutNow.jpg","info","eq","2.71","","10","1","1","92","null","imgNWTK/FindOutNow.jpg","imgNWTK/KeepItSecret.jpg","imgNWTK/KeepItSecret.jpg","NaN","NaN","","",""
"9392","","","bandit-task-exp6","18","502468","0.0-4.0-0.10","female","18","australia","26279","24679","neither","neither","imgNWTK/KeepItSecret.jpg","imgNWTK/FindOutNow.jpg","info","eq","2.71","","11","2","2","108","null","imgNWTK/FindOutNow.jpg","imgNWTK/KeepItSecret.jpg","imgNWTK/FindOutNow.jpg","NaN","NaN","","",""
"3210","","","bandit-task-exp6","19","528177","0.0-4.0-0.11","female","18","australia","26279","24679","neither","neither","imgNWTK/KeepItSecret.jpg","imgNWTK/FindOutNow.jpg","info","eq","2.71","","12","1","2","0","null","imgNWTK/KeepItSecret.jpg","imgNWTK/FindOutNow.jpg","imgNWTK/KeepItSecret.jpg","NaN","NaN","","",""
"11149","","","bandit-task-exp6","20","561630","0.0-4.0-0.12","female","18","australia","26279","24679","neither","neither","imgNWTK/KeepItSecret.jpg","imgNWTK/FindOutNow.jpg","info","eq","2.71","","13","1","1","98","null","imgNWTK/FindOutNow.jpg","imgNWTK/KeepItSecret.jpg","imgNWTK/KeepItSecret.jpg","NaN","NaN","","",""
"1462","","","bandit-task-exp6","21","585140","0.0-4.0-0.13","female","18","australia","26279","24679","neither","neither","imgNWTK/KeepItSecret.jpg","imgNWTK/FindOutNow.jpg","info","eq","2.71","","14","1","2","0","null","imgNWTK/KeepItSecret.jpg","imgNWTK/FindOutNow.jpg","imgNWTK/KeepItSecret.jpg","NaN","NaN","","",""
"3668","","","bandit-task-exp6","22","611594","0.0-4.0-0.14","female","18","australia","26279","24679","neither","neither","imgNWTK/KeepItSecret.jpg","imgNWTK/FindOutNow.jpg","info","eq","2.71","","15","1","1","110","null","imgNWTK/KeepItSecret.jpg","imgNWTK/FindOutNow.jpg","imgNWTK/KeepItSecret.jpg","NaN","NaN","","",""
"null","<p><b> Congratulations, you have finished this block. </b> </p><p>Please take a short break before moving onto the next block.</p><p>The next block will start after a 15 second break.</p><b>Remember, the point rewards are the same between blocks","","html-keyboard-response","23","626603","0.0-5.0","female","18","australia","26279","24679","neither","neither","imgNWTK/KeepItSecret.jpg","imgNWTK/FindOutNow.jpg","info","eq","2.71","","","","","","","","","","","","null","",""
"1511","","","bandit-task-exp6","24","656552","0.0-6.0-0.0","female","18","australia","26279","24679","neither","neither","imgNWTK/KeepItSecret.jpg","imgNWTK/FindOutNow.jpg","info","eq","2.71","","16","1","2","0","null","imgNWTK/KeepItSecret.jpg","imgNWTK/FindOutNow.jpg","imgNWTK/KeepItSecret.jpg","NaN","NaN","","",""
"829","","","bandit-task-exp6","25","681086","0.0-6.0-0.1","female","18","australia","26279","24679","neither","neither","imgNWTK/KeepItSecret.jpg","imgNWTK/FindOutNow.jpg","info","eq","2.71","","17","1","2","0","null","imgNWTK/KeepItSecret.jpg","imgNWTK/FindOutNow.jpg","imgNWTK/KeepItSecret.jpg","NaN","NaN","","",""
"994","","","bandit-task-exp6","26","706700","0.0-6.0-0.2","female","18","australia","26279","24679","neither","neither","imgNWTK/KeepItSecret.jpg","imgNWTK/FindOutNow.jpg","info","eq","2.71","","18","1","1","104","null","imgNWTK/KeepItSecret.jpg","imgNWTK/FindOutNow.jpg","imgNWTK/KeepItSecret.jpg","NaN","NaN","","",""
"1335","","","bandit-task-exp6","27","730900","0.0-6.0-0.3","female","18","australia","26279","24679","neither","neither","imgNWTK/KeepItSecret.jpg","imgNWTK/FindOutNow.jpg","info","eq","2.71","","19","2","1","0","null","imgNWTK/FindOutNow.jpg","imgNWTK/KeepItSecret.jpg","imgNWTK/FindOutNow.jpg","NaN","NaN","","",""
"1430","","","bandit-task-exp6","28","754741","0.0-6.0-0.4","female","18","australia","26279","24679","neither","neither","imgNWTK/KeepItSecret.jpg","imgNWTK/FindOutNow.jpg","info","eq","2.71","","20","1","1","100","null","imgNWTK/KeepItSecret.jpg","imgNWTK/FindOutNow.jpg","imgNWTK/KeepItSecret.jpg","NaN","NaN","","",""
"911","","","bandit-task-exp6","29","790125","0.0-6.0-0.5","female","18","australia","26279","24679","neither","neither","imgNWTK/KeepItSecret.jpg","imgNWTK/FindOutNow.jpg","info","eq","2.71","","21","2","2","109","null","imgNWTK/FindOutNow.jpg","imgNWTK/KeepItSecret.jpg","imgNWTK/FindOutNow.jpg","NaN","NaN","","",""
"16745","","","bandit-task-exp6","30","830064","0.0-6.0-0.6","female","18","australia","26279","24679","neither","neither","imgNWTK/KeepItSecret.jpg","imgNWTK/FindOutNow.jpg","info","eq","2.71","","22","1","1","108","null","imgNWTK/FindOutNow.jpg","imgNWTK/KeepItSecret.jpg","imgNWTK/KeepItSecret.jpg","NaN","NaN","","",""
"1234","","","bandit-task-exp6","31","857439","0.0-6.0-0.7","female","18","australia","26279","24679","neither","neither","imgNWTK/KeepItSecret.jpg","imgNWTK/FindOutNow.jpg","info","eq","2.71","","23","2","2","106","null","imgNWTK/KeepItSecret.jpg","imgNWTK/FindOutNow.jpg","imgNWTK/FindOutNow.jpg","NaN","NaN","","",""
"804","","","bandit-task-exp6","32","884927","0.0-6.0-0.8","female","18","australia","26279","24679","neither","neither","imgNWTK/KeepItSecret.jpg","imgNWTK/FindOutNow.jpg","info","eq","2.71","","24","2","1","0","null","imgNWTK/KeepItSecret.jpg","imgNWTK/FindOutNow.jpg","imgNWTK/FindOutNow.jpg","NaN","NaN","","",""
"696","","","bandit-task-exp6","33","907458","0.0-6.0-0.9","female","18","australia","26279","24679","neither","neither","imgNWTK/KeepItSecret.jpg","imgNWTK/FindOutNow.jpg","info","eq","2.71","","25","1","2","0","null","imgNWTK/FindOutNow.jpg","imgNWTK/KeepItSecret.jpg","imgNWTK/KeepItSecret.jpg","NaN","NaN","","",""
"1179","","","bandit-task-exp6","34","930967","0.0-6.0-0.10","female","18","australia","26279","24679","neither","neither","imgNWTK/KeepItSecret.jpg","imgNWTK/FindOutNow.jpg","info","eq","2.71","","26","2","1","0","null","imgNWTK/KeepItSecret.jpg","imgNWTK/FindOutNow.jpg","imgNWTK/FindOutNow.jpg","NaN","NaN","","",""
"855","","","bandit-task-exp6","35","954907","0.0-6.0-0.11","female","18","australia","26279","24679","neither","neither","imgNWTK/KeepItSecret.jpg","imgNWTK/FindOutNow.jpg","info","eq","2.71","","27","1","2","0","null","imgNWTK/KeepItSecret.jpg","imgNWTK/FindOutNow.jpg","imgNWTK/KeepItSecret.jpg","NaN","NaN","","",""
"926","","","bandit-task-exp6","36","979776","0.0-6.0-0.12","female","18","australia","26279","24679","neither","neither","imgNWTK/KeepItSecret.jpg","imgNWTK/FindOutNow.jpg","info","eq","2.71","","28","2","1","0","null","imgNWTK/KeepItSecret.jpg","imgNWTK/FindOutNow.jpg","imgNWTK/FindOutNow.jpg","NaN","NaN","","",""
"683","","","bandit-task-exp6","37","1008146","0.0-6.0-0.13","female","18","australia","26279","24679","neither","neither","imgNWTK/KeepItSecret.jpg","imgNWTK/FindOutNow.jpg","info","eq","2.71","","29","2","1","0","null","imgNWTK/KeepItSecret.jpg","imgNWTK/FindOutNow.jpg","imgNWTK/FindOutNow.jpg","NaN","NaN","","",""
"833","","","bandit-task-exp6","38","1031708","0.0-6.0-0.14","female","18","australia","26279","24679","neither","neither","imgNWTK/KeepItSecret.jpg","imgNWTK/FindOutNow.jpg","info","eq","2.71","","30","2","2","110","null","imgNWTK/KeepItSecret.jpg","imgNWTK/FindOutNow.jpg","imgNWTK/FindOutNow.jpg","NaN","NaN","","",""
"null","<p><b> Congratulations, you have finished this block. </b> </p><p>Please take a short break before moving onto the next block.</p><p>The next block will start after a 15 second break.</p><b>Remember, the point rewards are the same between blocks","","html-keyboard-response","39","1046716","0.0-7.0","female","18","australia","26279","24679","neither","neither","imgNWTK/KeepItSecret.jpg","imgNWTK/FindOutNow.jpg","info","eq","2.71","","","","","","","","","","","","null","",""
"3505","","","bandit-task-exp6","40","1077901","0.0-8.0-0.0","female","18","australia","26279","24679","neither","neither","imgNWTK/KeepItSecret.jpg","imgNWTK/FindOutNow.jpg","info","eq","2.71","","31","1","1","109","null","imgNWTK/FindOutNow.jpg","imgNWTK/KeepItSecret.jpg","imgNWTK/KeepItSecret.jpg","NaN","NaN","","",""
"1191","","","bandit-task-exp6","41","1100994","0.0-8.0-0.1","female","18","australia","26279","24679","neither","neither","imgNWTK/KeepItSecret.jpg","imgNWTK/FindOutNow.jpg","info","eq","2.71","","32","2","2","95","null","imgNWTK/KeepItSecret.jpg","imgNWTK/FindOutNow.jpg","imgNWTK/FindOutNow.jpg","NaN","NaN","","",""
"1602","","","bandit-task-exp6","42","1168749","0.0-8.0-0.2","female","18","australia","26279","24679","neither","neither","imgNWTK/KeepItSecret.jpg","imgNWTK/FindOutNow.jpg","info","eq","2.71","","33","1","1","94","null","imgNWTK/KeepItSecret.jpg","imgNWTK/FindOutNow.jpg","imgNWTK/KeepItSecret.jpg","NaN","NaN","","",""
"767","","","bandit-task-exp6","43","1192258","0.0-8.0-0.3","female","18","australia","26279","24679","neither","neither","imgNWTK/KeepItSecret.jpg","imgNWTK/FindOutNow.jpg","info","eq","2.71","","34","2","1","0","null","imgNWTK/KeepItSecret.jpg","imgNWTK/FindOutNow.jpg","imgNWTK/FindOutNow.jpg","NaN","NaN","","",""
"29467","","","bandit-task-exp6","44","1363403","0.0-8.0-0.4","female","18","australia","26279","24679","neither","neither","imgNWTK/KeepItSecret.jpg","imgNWTK/FindOutNow.jpg","info","eq","2.71","","35","1","1","99","null","imgNWTK/FindOutNow.jpg","imgNWTK/KeepItSecret.jpg","imgNWTK/KeepItSecret.jpg","NaN","NaN","","",""
"1237","","","bandit-task-exp6","45","1387587","0.0-8.0-0.5","female","18","australia","26279","24679","neither","neither","imgNWTK/KeepItSecret.jpg","imgNWTK/FindOutNow.jpg","info","eq","2.71","","36","2","2","90","null","imgNWTK/FindOutNow.jpg","imgNWTK/KeepItSecret.jpg","imgNWTK/FindOutNow.jpg","NaN","NaN","","",""
"1793","","","bandit-task-exp6","46","1413388","0.0-8.0-0.6","female","18","australia","26279","24679","neither","neither","imgNWTK/KeepItSecret.jpg","imgNWTK/FindOutNow.jpg","info","eq","2.71","","37","2","1","0","null","imgNWTK/KeepItSecret.jpg","imgNWTK/FindOutNow.jpg","imgNWTK/FindOutNow.jpg","NaN","NaN","","",""
"1482","","","bandit-task-exp6","47","1463196","0.0-8.0-0.7","female","18","australia","26279","24679","neither","neither","imgNWTK/KeepItSecret.jpg","imgNWTK/FindOutNow.jpg","info","eq","2.71","","38","1","2","0","null","imgNWTK/KeepItSecret.jpg","imgNWTK/FindOutNow.jpg","imgNWTK/KeepItSecret.jpg","NaN","NaN","","",""
"18444","","","bandit-task-exp6","48","1554082","0.0-8.0-0.8","female","18","australia","26279","24679","neither","neither","imgNWTK/KeepItSecret.jpg","imgNWTK/FindOutNow.jpg","info","eq","2.71","","39","1","1","106","null","imgNWTK/FindOutNow.jpg","imgNWTK/KeepItSecret.jpg","imgNWTK/KeepItSecret.jpg","NaN","NaN","","",""
"1442","","","bandit-task-exp6","49","1582066","0.0-8.0-0.9","female","18","australia","26279","24679","neither","neither","imgNWTK/KeepItSecret.jpg","imgNWTK/FindOutNow.jpg","info","eq","2.71","","40","2","2","110","null","imgNWTK/KeepItSecret.jpg","imgNWTK/FindOutNow.jpg","imgNWTK/FindOutNow.jpg","NaN","NaN","","",""
"2016","","","bandit-task-exp6","50","1639226","0.0-8.0-0.10","female","18","australia","26279","24679","neither","neither","imgNWTK/KeepItSecret.jpg","imgNWTK/FindOutNow.jpg","info","eq","2.71","","41","2","1","0","null","imgNWTK/FindOutNow.jpg","imgNWTK/KeepItSecret.jpg","imgNWTK/FindOutNow.jpg","NaN","NaN","","",""
"1100","","","bandit-task-exp6","51","1667124","0.0-8.0-0.11","female","18","australia","26279","24679","neither","neither","imgNWTK/KeepItSecret.jpg","imgNWTK/FindOutNow.jpg","info","eq","2.71","","42","2","1","0","null","imgNWTK/KeepItSecret.jpg","imgNWTK/FindOutNow.jpg","imgNWTK/FindOutNow.jpg","NaN","NaN","","",""
"18413","","","bandit-task-exp6","52","1709184","0.0-8.0-0.12","female","18","australia","26279","24679","neither","neither","imgNWTK/KeepItSecret.jpg","imgNWTK/FindOutNow.jpg","info","eq","2.71","","43","2","1","0","null","imgNWTK/FindOutNow.jpg","imgNWTK/KeepItSecret.jpg","imgNWTK/FindOutNow.jpg","NaN","NaN","","",""
"61721","","","bandit-task-exp6","53","1793470","0.0-8.0-0.13","female","18","australia","26279","24679","neither","neither","imgNWTK/KeepItSecret.jpg","imgNWTK/FindOutNow.jpg","info","eq","2.71","","44","1","2","0","null","imgNWTK/FindOutNow.jpg","imgNWTK/KeepItSecret.jpg","imgNWTK/KeepItSecret.jpg","NaN","NaN","","",""
"734","","","bandit-task-exp6","54","1816451","0.0-8.0-0.14","female","18","australia","26279","24679","neither","neither","imgNWTK/KeepItSecret.jpg","imgNWTK/FindOutNow.jpg","info","eq","2.71","","45","2","2","101","null","imgNWTK/FindOutNow.jpg","imgNWTK/KeepItSecret.jpg","imgNWTK/FindOutNow.jpg","NaN","NaN","","",""
"null","<p><b> Congratulations, you have finished this block. </b> </p><p>Please take a short break before moving onto the next block.</p><p>The next block will start after a 15 second break.</p><b>Remember, the point rewards are the same between blocks","","html-keyboard-response","55","1831459","0.0-9.0","female","18","australia","26279","24679","neither","neither","imgNWTK/KeepItSecret.jpg","imgNWTK/FindOutNow.jpg","info","eq","2.71","","","","","","","","","","","","null","",""
"77868","","","bandit-task-exp6","56","1931770","0.0-10.0-0.0","female","18","australia","26279","24679","neither","neither","imgNWTK/KeepItSecret.jpg","imgNWTK/FindOutNow.jpg","info","eq","2.71","","46","1","1","101","null","imgNWTK/KeepItSecret.jpg","imgNWTK/FindOutNow.jpg","imgNWTK/KeepItSecret.jpg","50","50","","",""
"6971","","","bandit-task-exp6","57","1960952","0.0-10.0-0.1","female","18","australia","26279","24679","neither","neither","imgNWTK/KeepItSecret.jpg","imgNWTK/FindOutNow.jpg","info","eq","2.71","","47","2","1","0","null","imgNWTK/FindOutNow.jpg","imgNWTK/KeepItSecret.jpg","imgNWTK/FindOutNow.jpg","70","30","","",""
"6295","","","bandit-task-exp6","58","1991986","0.0-10.0-0.2","female","18","australia","26279","24679","neither","neither","imgNWTK/KeepItSecret.jpg","imgNWTK/FindOutNow.jpg","info","eq","2.71","","48","2","2","98","null","imgNWTK/FindOutNow.jpg","imgNWTK/KeepItSecret.jpg","imgNWTK/FindOutNow.jpg","40","60","","",""
"5197","","","bandit-task-exp6","59","2019594","0.0-10.0-0.3","female","18","australia","26279","24679","neither","neither","imgNWTK/KeepItSecret.jpg","imgNWTK/FindOutNow.jpg","info","eq","2.71","","49","1","2","0","null","imgNWTK/FindOutNow.jpg","imgNWTK/KeepItSecret.jpg","imgNWTK/KeepItSecret.jpg","50","50","","",""
"5842","","","bandit-task-exp6","60","2052322","0.0-10.0-0.4","female","18","australia","26279","24679","neither","neither","imgNWTK/KeepItSecret.jpg","imgNWTK/FindOutNow.jpg","info","eq","2.71","","50","2","1","0","null","imgNWTK/KeepItSecret.jpg","imgNWTK/FindOutNow.jpg","imgNWTK/FindOutNow.jpg","50","50","","",""
"4925","","","bandit-task-exp6","61","2093673","0.0-10.0-0.5","female","18","australia","26279","24679","neither","neither","imgNWTK/KeepItSecret.jpg","imgNWTK/FindOutNow.jpg","info","eq","2.71","","51","2","1","0","null","imgNWTK/KeepItSecret.jpg","imgNWTK/FindOutNow.jpg","imgNWTK/FindOutNow.jpg","30","70","","",""
"7064","","","bandit-task-exp6","62","2123585","0.0-10.0-0.6","female","18","australia","26279","24679","neither","neither","imgNWTK/KeepItSecret.jpg","imgNWTK/FindOutNow.jpg","info","eq","2.71","","52","2","1","0","null","imgNWTK/KeepItSecret.jpg","imgNWTK/FindOutNow.jpg","imgNWTK/FindOutNow.jpg","50","50","","",""
"4615","","","bandit-task-exp6","63","2256404","0.0-10.0-0.7","female","18","australia","26279","24679","neither","neither","imgNWTK/KeepItSecret.jpg","imgNWTK/FindOutNow.jpg","info","eq","2.71","","53","2","1","0","null","imgNWTK/KeepItSecret.jpg","imgNWTK/FindOutNow.jpg","imgNWTK/FindOutNow.jpg","40","60","","",""
"6818","","","bandit-task-exp6","64","2286370","0.0-10.0-0.8","female","18","australia","26279","24679","neither","neither","imgNWTK/KeepItSecret.jpg","imgNWTK/FindOutNow.jpg","info","eq","2.71","","54","1","2","0","null","imgNWTK/FindOutNow.jpg","imgNWTK/KeepItSecret.jpg","imgNWTK/KeepItSecret.jpg","30","70","","",""
"4700","","","bandit-task-exp6","65","2314045","0.0-10.0-0.9","female","18","australia","26279","24679","neither","neither","imgNWTK/KeepItSecret.jpg","imgNWTK/FindOutNow.jpg","info","eq","2.71","","55","1","1","96","null","imgNWTK/FindOutNow.jpg","imgNWTK/KeepItSecret.jpg","imgNWTK/KeepItSecret.jpg","50","70","","",""
"6244","","","bandit-task-exp6","66","2342382","0.0-10.0-0.10","female","18","australia","26279","24679","neither","neither","imgNWTK/KeepItSecret.jpg","imgNWTK/FindOutNow.jpg","info","eq","2.71","","56","1","2","0","null","imgNWTK/FindOutNow.jpg","imgNWTK/KeepItSecret.jpg","imgNWTK/KeepItSecret.jpg","30","70","","",""
"4688","","","bandit-task-exp6","67","2369069","0.0-10.0-0.11","female","18","australia","26279","24679","neither","neither","imgNWTK/KeepItSecret.jpg","imgNWTK/FindOutNow.jpg","info","eq","2.71","","57","2","2","90","null","imgNWTK/FindOutNow.jpg","imgNWTK/KeepItSecret.jpg","imgNWTK/FindOutNow.jpg","50","50","","",""
"9535","","","bandit-task-exp6","68","2404738","0.0-10.0-0.12","female","18","australia","26279","24679","neither","neither","imgNWTK/KeepItSecret.jpg","imgNWTK/FindOutNow.jpg","info","eq","2.71","","58","1","1","93","null","imgNWTK/FindOutNow.jpg","imgNWTK/KeepItSecret.jpg","imgNWTK/KeepItSecret.jpg","59","70","","",""
"5813","","","bandit-task-exp6","69","2434001","0.0-10.0-0.13","female","18","australia","26279","24679","neither","neither","imgNWTK/KeepItSecret.jpg","imgNWTK/FindOutNow.jpg","info","eq","2.71","","59","1","2","0","null","imgNWTK/FindOutNow.jpg","imgNWTK/KeepItSecret.jpg","imgNWTK/KeepItSecret.jpg","30","70","","",""
"4795","","","bandit-task-exp6","70","2460934","0.0-10.0-0.14","female","18","australia","26279","24679","neither","neither","imgNWTK/KeepItSecret.jpg","imgNWTK/FindOutNow.jpg","info","eq","2.71","","60","2","1","0","null","imgNWTK/KeepItSecret.jpg","imgNWTK/FindOutNow.jpg","imgNWTK/FindOutNow.jpg","30","20","","",""
"1953","<p> Congratulations, you have finished the main part of the experiment. </p><p>Before you finish, we have a few short questions about the options and outcomes you saw in the task.</p>","0","html-button-response","71","2462890","0.0-11.0","female","18","australia","26279","24679","neither","neither","imgNWTK/KeepItSecret.jpg","imgNWTK/FindOutNow.jpg","info","eq","2.71","","","","","","","","","","","","","",""
"5124","<p><b>Now, imagine that you clicked on the below button for another 10 trials (this includes <i> BOTH WIN and NO-WIN trials</i>).</p> <img src= 'imgNWTK/FindOutNow.jpg'></img></br></br> <p><b>Please type the reward (number of points) you would expect to receive on every trial.</br> Click start to begin.</p>","0","html-button-response","72","2468016","0.0-12.0","female","18","australia","26279","24679","neither","neither","imgNWTK/KeepItSecret.jpg","imgNWTK/FindOutNow.jpg","info","eq","2.71","","","","","","","","","","","","","",""
"3669.5","","","survey-number","73","2471694","0.0-13.0-0.0","female","18","australia","26279","24679","neither","neither","imgNWTK/KeepItSecret.jpg","imgNWTK/FindOutNow.jpg","info","eq","2.71","{""undefined"":""49""}","","","","","","","","","","","","imgNWTK/FindOutNow.jpg",""
"6900.800000011921","","","survey-number","74","2478602","0.0-13.0-0.1","female","18","australia","26279","24679","neither","neither","imgNWTK/KeepItSecret.jpg","imgNWTK/FindOutNow.jpg","info","eq","2.71","{""undefined"":""60""}","","","","","","","","","","","","imgNWTK/FindOutNow.jpg",""
"3021.5999999940395","","","survey-number","75","2481631","0.0-13.0-0.2","female","18","australia","26279","24679","neither","neither","imgNWTK/KeepItSecret.jpg","imgNWTK/FindOutNow.jpg","info","eq","2.71","{""undefined"":""50""}","","","","","","","","","","","","imgNWTK/FindOutNow.jpg",""
"3236.2999999970198","","","survey-number","76","2484875","0.0-13.0-0.3","female","18","australia","26279","24679","neither","neither","imgNWTK/KeepItSecret.jpg","imgNWTK/FindOutNow.jpg","info","eq","2.71","{""undefined"":""20""}","","","","","","","","","","","","imgNWTK/FindOutNow.jpg",""
"2409","","","survey-number","77","2487290","0.0-13.0-0.4","female","18","australia","26279","24679","neither","neither","imgNWTK/KeepItSecret.jpg","imgNWTK/FindOutNow.jpg","info","eq","2.71","{""undefined"":""60""}","","","","","","","","","","","","imgNWTK/FindOutNow.jpg",""
"1752.2999999970198","","","survey-number","78","2489049","0.0-13.0-0.5","female","18","australia","26279","24679","neither","neither","imgNWTK/KeepItSecret.jpg","imgNWTK/FindOutNow.jpg","info","eq","2.71","{""undefined"":""70""}","","","","","","","","","","","","imgNWTK/FindOutNow.jpg",""
"1790.7999999970198","","","survey-number","79","2490846","0.0-13.0-0.6","female","18","australia","26279","24679","neither","neither","imgNWTK/KeepItSecret.jpg","imgNWTK/FindOutNow.jpg","info","eq","2.71","{""undefined"":""60""}","","","","","","","","","","","","imgNWTK/FindOutNow.jpg",""
"3013.4000000059605","","","survey-number","80","2493865","0.0-13.0-0.7","female","18","australia","26279","24679","neither","neither","imgNWTK/KeepItSecret.jpg","imgNWTK/FindOutNow.jpg","info","eq","2.71","{""undefined"":""60""}","","","","","","","","","","","","imgNWTK/FindOutNow.jpg",""
"2313.0999999940395","","","survey-number","81","2496184","0.0-13.0-0.8","female","18","australia","26279","24679","neither","neither","imgNWTK/KeepItSecret.jpg","imgNWTK/FindOutNow.jpg","info","eq","2.71","{""undefined"":""40""}","","","","","","","","","","","","imgNWTK/FindOutNow.jpg",""
"2134","","","survey-number","82","2498325","0.0-13.0-0.9","female","18","australia","26279","24679","neither","neither","imgNWTK/KeepItSecret.jpg","imgNWTK/FindOutNow.jpg","info","eq","2.71","{""undefined"":""50""}","","","","","","","","","","","","imgNWTK/FindOutNow.jpg",""
"1128","<p><b>Imagine that you clicked on the below button for another 10 trials (this includes <i> both WIN and NO-WIN trials</i>).</p> <img src= 'imgNWTK/KeepItSecret.jpg'></img></br></br> <p><b>Please type the reward (number of points) you would expect to receive on every trial.</br> Click start to begin.</p>","0","html-button-response","83","2499456","0.0-14.0","female","18","australia","26279","24679","neither","neither","imgNWTK/KeepItSecret.jpg","imgNWTK/FindOutNow.jpg","info","eq","2.71","","","","","","","","","","","","","",""
"3722.699999988079","","","survey-number","84","2503185","0.0-15.0-0.0","female","18","australia","26279","24679","neither","neither","imgNWTK/KeepItSecret.jpg","imgNWTK/FindOutNow.jpg","info","eq","2.71","{""undefined"":""70""}","","","","","","","","","","","","imgNWTK/KeepItSecret.jpg",""
"1800.6000000089407","","","survey-number","85","2504992","0.0-15.0-0.1","female","18","australia","26279","24679","neither","neither","imgNWTK/KeepItSecret.jpg","imgNWTK/FindOutNow.jpg","info","eq","2.71","{""undefined"":""45""}","","","","","","","","","","","","imgNWTK/KeepItSecret.jpg",""
"579.5","","","survey-number","86","2505579","0.0-15.0-0.2","female","18","australia","26279","24679","neither","neither","imgNWTK/KeepItSecret.jpg","imgNWTK/FindOutNow.jpg","info","eq","2.71","{""undefined"":""34""}","","","","","","","","","","","","imgNWTK/KeepItSecret.jpg",""
"664.7000000029802","","","survey-number","87","2506249","0.0-15.0-0.3","female","18","australia","26279","24679","neither","neither","imgNWTK/KeepItSecret.jpg","imgNWTK/FindOutNow.jpg","info","eq","2.71","{""undefined"":""34""}","","","","","","","","","","","","imgNWTK/KeepItSecret.jpg",""
"763.3999999910593","","","survey-number","88","2507018","0.0-15.0-0.4","female","18","australia","26279","24679","neither","neither","imgNWTK/KeepItSecret.jpg","imgNWTK/FindOutNow.jpg","info","eq","2.71","{""undefined"":""35""}","","","","","","","","","","","","imgNWTK/KeepItSecret.jpg",""
"1019.5","","","survey-number","89","2508043","0.0-15.0-0.5","female","18","australia","26279","24679","neither","neither","imgNWTK/KeepItSecret.jpg","imgNWTK/FindOutNow.jpg","info","eq","2.71","{""undefined"":""54""}","","","","","","","","","","","","imgNWTK/KeepItSecret.jpg",""
"630.5999999940395","","","survey-number","90","2508680","0.0-15.0-0.6","female","18","australia","26279","24679","neither","neither","imgNWTK/KeepItSecret.jpg","imgNWTK/FindOutNow.jpg","info","eq","2.71","{""undefined"":""65""}","","","","","","","","","","","","imgNWTK/KeepItSecret.jpg",""
"892","","","survey-number","91","2509578","0.0-15.0-0.7","female","18","australia","26279","24679","neither","neither","imgNWTK/KeepItSecret.jpg","imgNWTK/FindOutNow.jpg","info","eq","2.71","{""undefined"":""76""}","","","","","","","","","","","","imgNWTK/KeepItSecret.jpg",""
"954.9000000059605","","","survey-number","92","2510539","0.0-15.0-0.8","female","18","australia","26279","24679","neither","neither","imgNWTK/KeepItSecret.jpg","imgNWTK/FindOutNow.jpg","info","eq","2.71","{""undefined"":""45""}","","","","","","","","","","","","imgNWTK/KeepItSecret.jpg",""
"1014.7000000029802","","","survey-number","93","2511559","0.0-15.0-0.9","female","18","australia","26279","24679","neither","neither","imgNWTK/KeepItSecret.jpg","imgNWTK/FindOutNow.jpg","info","eq","2.71","{""undefined"":""23""}","","","","","","","","","","","","imgNWTK/KeepItSecret.jpg",""
"3159.2999999970198","","","survey-number","94","2514730","0.0-16.0","female","18","australia","26279","24679","neither","neither","imgNWTK/KeepItSecret.jpg","imgNWTK/FindOutNow.jpg","info","eq","2.71","{""undefined"":""32""}","","","","","","","","","","","","","imgNWTK/FindOutNow.jpg"
"816.6000000089407","","","survey-number","95","2515555","0.0-17.0","female","18","australia","26279","24679","neither","neither","imgNWTK/KeepItSecret.jpg","imgNWTK/FindOutNow.jpg","info","eq","2.71","{""undefined"":""23""}","","","","","","","","","","","","","imgNWTK/KeepItSecret.jpg"
"21025","<p style=""text-align:left;"">Great! We are almost at the end of the study... (Please do not close the browser window yet.)</p><p> Your final points balance is 2713, which equals to a bonus payment of $2.71. Please collect your payment from Mathews Building Room 721 (Mon-Fri 9am-5pm); please email amy.x.li@unsw.edu.au at least 24 hours prior to collection so that this is ready for you.</p><p style=""text-align:left;"">To view the debriefing form, please click <a href=""./imgNWTK/debrief_3205.pdf"" target=""_blank"">here</a> to download a copy.</p><p style=""text-align:left;"">Then, <b>please click the below button</b> to confirm that you have received your debrief and to complete the study. Upon clicking ""Finish!"", your SONA credit will be automatically assigned.</p>","0","html-button-response","96","2536583","0.0-18.0","female","18","australia","26279","24679","neither","neither","imgNWTK/KeepItSecret.jpg","imgNWTK/FindOutNow.jpg","info","eq","2.71","","","","","","","","","","","","","",""
