"rt","stimulus","button_pressed","trial_type","trial_index","time_elapsed","internal_node_id","gender","age","language","PID","sona_id","subStim","optStim","stim1","stim2","infoCond","optimCond","bonus","responses","banditTrial","choice","cue","feedback","estimateData","leftOption","rightOption","choiceName","leftInput","rightInput","key_press","postQ","singleEst"
"2813","<p>Thank you for signing up to participate in SONA Study 465! <br> During this study, please focus on the experiment and refrain from activities such as:</p>- <b>Switching to other tabs on your browser (this will be monitored via the experiment)</br> - Using your mobile phone/cell phone</br> - Communicating with others</br></br></b><p>This way, you are helping to provide data that is useful for psychological research. We thank you for your cooperation!</p>","0","html-button-response","0","2817","0.0-0.0","female","18","Australia","606","24681","imgNWTK/square.png","imgNWTK/triangle.png","imgNWTK/square.png","imgNWTK/triangle.png","noninfo","optim","2.71","","","","","","","","","","","","","",""
"1126","<p>Welcome to the experiment!</p><p>You will now read some instructions about the task. Press the 'Next' button to continue. </p>","0","html-button-response","1","3944","0.0-1.0","female","18","Australia","606","24681","imgNWTK/square.png","imgNWTK/triangle.png","imgNWTK/square.png","imgNWTK/triangle.png","noninfo","optim","2.71","","","","","","","","","","","","","",""
"12152","<p> On each trial throughout the experiment you will choose between two options, </br>a <b>Black Square </b> and <b> Black Triangle </b>, as seen below.</p><div><div style= 'float: left; width: 300px; margin: 10px 10px;'><img src= 'imgNWTK/square.png'></img></div><div style= 'float: right; width: 300px; margin: 10px 10px;'><img src= 'imgNWTK/triangle.png'></img></div></div><br/><br/><br/><br/><br/><br/><br/><br/><br/><br/><br/><p>Each option results in winning points or receiving 0 points.</br>There is a 50% chance of either winning or receiving 0 points.</p><p>You won't receive the outcome until after a <b> 20 second delay</b>.</p>","0","html-button-response","2","16098","0.0-2.0-0.0","female","18","Australia","606","24681","imgNWTK/square.png","imgNWTK/triangle.png","imgNWTK/square.png","imgNWTK/triangle.png","noninfo","optim","2.71","","","","","","","","","","","","","",""
"17697","<img src= 'imgNWTK/NonInfoDiagram.png'></img><p>As seen above, whether you choose the square or triangle, you will receive a coloured circle after the choice. </p> <p>This circle will be on screen for 20 seconds until you win points or receive 0 points.</p><p>The coloured circle depends on which option you chose. </br> In the above example, choosing a triangle leads to a green circle and choosing the square leads to a red circle.</p>Please note: the circles in your task will be different to the above colours.</br></br>","0","html-button-response","3","33798","0.0-2.0-1.0","female","18","Australia","606","24681","imgNWTK/square.png","imgNWTK/triangle.png","imgNWTK/square.png","imgNWTK/triangle.png","noninfo","optim","2.71","","","","","","","","","","","","","",""
"3324","<img src= 'cues/winTrials_noInfo.png' width = '1200'></img><p>To reiterate, 50% of the outcomes of each option will be WIN TRIALS, and the other 50% will be NO-WIN TRIALS.","0","html-button-response","4","37124","0.0-2.0-2.0","female","18","Australia","606","24681","imgNWTK/square.png","imgNWTK/triangle.png","imgNWTK/square.png","imgNWTK/triangle.png","noninfo","optim","2.71","","","","","","","","","","","","","",""
"35038","<p> There will be <b>four blocks</b> in the experiment.</br>You will be given a short 15 second break between each block.</p><p><b>The points and the options will remain the same between the blocks.</b></p>The blocks are there just to give you a small break.</br></br></br></br><p>The points you earn in the task are also equal to <b> actual money</b>.</br> <b>1000 points is equal to $1 AUD</b></p><p>This is the rate you will be paid at the experiment's end.","0","html-button-response","5","72164","0.0-2.0-3.0","female","18","Australia","606","24681","imgNWTK/square.png","imgNWTK/triangle.png","imgNWTK/square.png","imgNWTK/triangle.png","noninfo","optim","2.71","","","","","","","","","","","","","",""
"12781","","","survey-multi-choice","6","84950","0.0-2.0-4.0","female","18","Australia","606","24681","imgNWTK/square.png","imgNWTK/triangle.png","imgNWTK/square.png","imgNWTK/triangle.png","noninfo","optim","2.71","{""Q0"":""20 Seconds"",""Q1"":""True"",""Q2"":""Equally""}","","","","","","","","","","","","",""
"1650","<p> Well done, all your answers were correct! <br> The experiment is about to start now. <br/> Click start to continue, or email your researcher <b>(amy.x.li@unsw.edu.au)</b> if you have any questions before starting.","0","html-button-response","7","86607","0.0-3.0","female","18","Australia","606","24681","imgNWTK/square.png","imgNWTK/triangle.png","imgNWTK/square.png","imgNWTK/triangle.png","noninfo","optim","2.71","","","","","","","","","","","","","",""
"2022","","","bandit-task-exp6","8","111462","0.0-4.0-0.0","female","18","Australia","606","24681","imgNWTK/square.png","imgNWTK/triangle.png","imgNWTK/square.png","imgNWTK/triangle.png","noninfo","optim","2.71","","1","1","1","78","null","imgNWTK/triangle.png","imgNWTK/square.png","imgNWTK/square.png","NaN","NaN","","",""
"3057","","","bandit-task-exp6","9","137073","0.0-4.0-0.1","female","18","Australia","606","24681","imgNWTK/square.png","imgNWTK/triangle.png","imgNWTK/square.png","imgNWTK/triangle.png","noninfo","optim","2.71","","2","2","1","0","null","imgNWTK/square.png","imgNWTK/triangle.png","imgNWTK/triangle.png","NaN","NaN","","",""
"759","","","bandit-task-exp6","10","162066","0.0-4.0-0.2","female","18","Australia","606","24681","imgNWTK/square.png","imgNWTK/triangle.png","imgNWTK/square.png","imgNWTK/triangle.png","noninfo","optim","2.71","","3","1","2","0","null","imgNWTK/square.png","imgNWTK/triangle.png","imgNWTK/square.png","NaN","NaN","","",""
"880","","","bandit-task-exp6","11","185736","0.0-4.0-0.3","female","18","Australia","606","24681","imgNWTK/square.png","imgNWTK/triangle.png","imgNWTK/square.png","imgNWTK/triangle.png","noninfo","optim","2.71","","4","2","2","125","null","imgNWTK/square.png","imgNWTK/triangle.png","imgNWTK/triangle.png","NaN","NaN","","",""
"1538","","","bandit-task-exp6","12","209754","0.0-4.0-0.4","female","18","Australia","606","24681","imgNWTK/square.png","imgNWTK/triangle.png","imgNWTK/square.png","imgNWTK/triangle.png","noninfo","optim","2.71","","5","1","1","79","null","imgNWTK/triangle.png","imgNWTK/square.png","imgNWTK/square.png","NaN","NaN","","",""
"980","","","bandit-task-exp6","13","234543","0.0-4.0-0.5","female","18","Australia","606","24681","imgNWTK/square.png","imgNWTK/triangle.png","imgNWTK/square.png","imgNWTK/triangle.png","noninfo","optim","2.71","","6","1","2","0","null","imgNWTK/square.png","imgNWTK/triangle.png","imgNWTK/square.png","NaN","NaN","","",""
"820","","","bandit-task-exp6","14","257381","0.0-4.0-0.6","female","18","Australia","606","24681","imgNWTK/square.png","imgNWTK/triangle.png","imgNWTK/square.png","imgNWTK/triangle.png","noninfo","optim","2.71","","7","1","2","0","null","imgNWTK/square.png","imgNWTK/triangle.png","imgNWTK/square.png","NaN","NaN","","",""
"718","","","bandit-task-exp6","15","298251","0.0-4.0-0.7","female","18","Australia","606","24681","imgNWTK/square.png","imgNWTK/triangle.png","imgNWTK/square.png","imgNWTK/triangle.png","noninfo","optim","2.71","","8","2","1","0","null","imgNWTK/square.png","imgNWTK/triangle.png","imgNWTK/triangle.png","NaN","NaN","","",""
"752","","","bandit-task-exp6","16","321345","0.0-4.0-0.8","female","18","Australia","606","24681","imgNWTK/square.png","imgNWTK/triangle.png","imgNWTK/square.png","imgNWTK/triangle.png","noninfo","optim","2.71","","9","2","1","0","null","imgNWTK/square.png","imgNWTK/triangle.png","imgNWTK/triangle.png","NaN","NaN","","",""
"779","","","bandit-task-exp6","17","345713","0.0-4.0-0.9","female","18","Australia","606","24681","imgNWTK/square.png","imgNWTK/triangle.png","imgNWTK/square.png","imgNWTK/triangle.png","noninfo","optim","2.71","","10","2","2","110","null","imgNWTK/square.png","imgNWTK/triangle.png","imgNWTK/triangle.png","NaN","NaN","","",""
"1474","","","bandit-task-exp6","18","369906","0.0-4.0-0.10","female","18","Australia","606","24681","imgNWTK/square.png","imgNWTK/triangle.png","imgNWTK/square.png","imgNWTK/triangle.png","noninfo","optim","2.71","","11","2","2","113","null","imgNWTK/square.png","imgNWTK/triangle.png","imgNWTK/triangle.png","NaN","NaN","","",""
"930","","","bandit-task-exp6","19","393223","0.0-4.0-0.11","female","18","Australia","606","24681","imgNWTK/square.png","imgNWTK/triangle.png","imgNWTK/square.png","imgNWTK/triangle.png","noninfo","optim","2.71","","12","1","1","75","null","imgNWTK/triangle.png","imgNWTK/square.png","imgNWTK/square.png","NaN","NaN","","",""
"1183","","","bandit-task-exp6","20","416566","0.0-4.0-0.12","female","18","Australia","606","24681","imgNWTK/square.png","imgNWTK/triangle.png","imgNWTK/square.png","imgNWTK/triangle.png","noninfo","optim","2.71","","13","2","1","0","null","imgNWTK/square.png","imgNWTK/triangle.png","imgNWTK/triangle.png","NaN","NaN","","",""
"783","","","bandit-task-exp6","21","506923","0.0-4.0-0.13","female","18","Australia","606","24681","imgNWTK/square.png","imgNWTK/triangle.png","imgNWTK/square.png","imgNWTK/triangle.png","noninfo","optim","2.71","","14","2","1","0","null","imgNWTK/square.png","imgNWTK/triangle.png","imgNWTK/triangle.png","NaN","NaN","","",""
"778","","","bandit-task-exp6","22","530293","0.0-4.0-0.14","female","18","Australia","606","24681","imgNWTK/square.png","imgNWTK/triangle.png","imgNWTK/square.png","imgNWTK/triangle.png","noninfo","optim","2.71","","15","1","2","0","null","imgNWTK/triangle.png","imgNWTK/square.png","imgNWTK/square.png","NaN","NaN","","",""
"null","<p><b> Congratulations, you have finished this block. </b> </p><p>Please take a short break before moving onto the next block.</p><p>The next block will start after a 15 second break.</p><b>Remember, the point rewards are the same between blocks","","html-keyboard-response","23","545298","0.0-5.0","female","18","Australia","606","24681","imgNWTK/square.png","imgNWTK/triangle.png","imgNWTK/square.png","imgNWTK/triangle.png","noninfo","optim","2.71","","","","","","","","","","","","null","",""
"1921","","","bandit-task-exp6","24","569501","0.0-6.0-0.0","female","18","Australia","606","24681","imgNWTK/square.png","imgNWTK/triangle.png","imgNWTK/square.png","imgNWTK/triangle.png","noninfo","optim","2.71","","16","2","2","115","null","imgNWTK/square.png","imgNWTK/triangle.png","imgNWTK/triangle.png","NaN","NaN","","",""
"993","","","bandit-task-exp6","25","593898","0.0-6.0-0.1","female","18","Australia","606","24681","imgNWTK/square.png","imgNWTK/triangle.png","imgNWTK/square.png","imgNWTK/triangle.png","noninfo","optim","2.71","","17","2","1","0","null","imgNWTK/square.png","imgNWTK/triangle.png","imgNWTK/triangle.png","NaN","NaN","","",""
"1662","","","bandit-task-exp6","26","618717","0.0-6.0-0.2","female","18","Australia","606","24681","imgNWTK/square.png","imgNWTK/triangle.png","imgNWTK/square.png","imgNWTK/triangle.png","noninfo","optim","2.71","","18","2","2","122","null","imgNWTK/square.png","imgNWTK/triangle.png","imgNWTK/triangle.png","NaN","NaN","","",""
"736","","","bandit-task-exp6","27","647414","0.0-6.0-0.3","female","18","Australia","606","24681","imgNWTK/square.png","imgNWTK/triangle.png","imgNWTK/square.png","imgNWTK/triangle.png","noninfo","optim","2.71","","19","1","1","80","null","imgNWTK/triangle.png","imgNWTK/square.png","imgNWTK/square.png","NaN","NaN","","",""
"1078","","","bandit-task-exp6","28","671813","0.0-6.0-0.4","female","18","Australia","606","24681","imgNWTK/square.png","imgNWTK/triangle.png","imgNWTK/square.png","imgNWTK/triangle.png","noninfo","optim","2.71","","20","1","2","0","null","imgNWTK/triangle.png","imgNWTK/square.png","imgNWTK/square.png","NaN","NaN","","",""
"1822","","","bandit-task-exp6","29","925468","0.0-6.0-0.5","female","18","Australia","606","24681","imgNWTK/square.png","imgNWTK/triangle.png","imgNWTK/square.png","imgNWTK/triangle.png","noninfo","optim","2.71","","21","1","2","0","null","imgNWTK/triangle.png","imgNWTK/square.png","imgNWTK/square.png","NaN","NaN","","",""
"911","","","bandit-task-exp6","30","948547","0.0-6.0-0.6","female","18","Australia","606","24681","imgNWTK/square.png","imgNWTK/triangle.png","imgNWTK/square.png","imgNWTK/triangle.png","noninfo","optim","2.71","","22","2","1","0","null","imgNWTK/square.png","imgNWTK/triangle.png","imgNWTK/triangle.png","NaN","NaN","","",""
"587","","","bandit-task-exp6","31","971674","0.0-6.0-0.7","female","18","Australia","606","24681","imgNWTK/square.png","imgNWTK/triangle.png","imgNWTK/square.png","imgNWTK/triangle.png","noninfo","optim","2.71","","23","1","1","77","null","imgNWTK/triangle.png","imgNWTK/square.png","imgNWTK/square.png","NaN","NaN","","",""
"1223","","","bandit-task-exp6","32","994712","0.0-6.0-0.8","female","18","Australia","606","24681","imgNWTK/square.png","imgNWTK/triangle.png","imgNWTK/square.png","imgNWTK/triangle.png","noninfo","optim","2.71","","24","1","2","0","null","imgNWTK/triangle.png","imgNWTK/square.png","imgNWTK/square.png","NaN","NaN","","",""
"651","","","bandit-task-exp6","33","1018383","0.0-6.0-0.9","female","18","Australia","606","24681","imgNWTK/square.png","imgNWTK/triangle.png","imgNWTK/square.png","imgNWTK/triangle.png","noninfo","optim","2.71","","25","2","2","121","null","imgNWTK/square.png","imgNWTK/triangle.png","imgNWTK/triangle.png","NaN","NaN","","",""
"1663","","","bandit-task-exp6","34","1056964","0.0-6.0-0.10","female","18","Australia","606","24681","imgNWTK/square.png","imgNWTK/triangle.png","imgNWTK/square.png","imgNWTK/triangle.png","noninfo","optim","2.71","","26","2","1","0","null","imgNWTK/square.png","imgNWTK/triangle.png","imgNWTK/triangle.png","NaN","NaN","","",""
"727","","","bandit-task-exp6","35","1087301","0.0-6.0-0.11","female","18","Australia","606","24681","imgNWTK/square.png","imgNWTK/triangle.png","imgNWTK/square.png","imgNWTK/triangle.png","noninfo","optim","2.71","","27","2","1","0","null","imgNWTK/square.png","imgNWTK/triangle.png","imgNWTK/triangle.png","NaN","NaN","","",""
"628","","","bandit-task-exp6","36","1109623","0.0-6.0-0.12","female","18","Australia","606","24681","imgNWTK/square.png","imgNWTK/triangle.png","imgNWTK/square.png","imgNWTK/triangle.png","noninfo","optim","2.71","","28","2","2","125","null","imgNWTK/square.png","imgNWTK/triangle.png","imgNWTK/triangle.png","NaN","NaN","","",""
"702","","","bandit-task-exp6","37","1132924","0.0-6.0-0.13","female","18","Australia","606","24681","imgNWTK/square.png","imgNWTK/triangle.png","imgNWTK/square.png","imgNWTK/triangle.png","noninfo","optim","2.71","","29","1","2","0","null","imgNWTK/triangle.png","imgNWTK/square.png","imgNWTK/square.png","NaN","NaN","","",""
"571","","","bandit-task-exp6","38","1155766","0.0-6.0-0.14","female","18","Australia","606","24681","imgNWTK/square.png","imgNWTK/triangle.png","imgNWTK/square.png","imgNWTK/triangle.png","noninfo","optim","2.71","","30","2","1","0","null","imgNWTK/square.png","imgNWTK/triangle.png","imgNWTK/triangle.png","NaN","NaN","","",""
"null","<p><b> Congratulations, you have finished this block. </b> </p><p>Please take a short break before moving onto the next block.</p><p>The next block will start after a 15 second break.</p><b>Remember, the point rewards are the same between blocks","","html-keyboard-response","39","1170770","0.0-7.0","female","18","Australia","606","24681","imgNWTK/square.png","imgNWTK/triangle.png","imgNWTK/square.png","imgNWTK/triangle.png","noninfo","optim","2.71","","","","","","","","","","","","null","",""
"1499","","","bandit-task-exp6","40","1195303","0.0-8.0-0.0","female","18","Australia","606","24681","imgNWTK/square.png","imgNWTK/triangle.png","imgNWTK/square.png","imgNWTK/triangle.png","noninfo","optim","2.71","","31","2","2","112","null","imgNWTK/square.png","imgNWTK/triangle.png","imgNWTK/triangle.png","NaN","NaN","","",""
"877","","","bandit-task-exp6","41","1219016","0.0-8.0-0.1","female","18","Australia","606","24681","imgNWTK/square.png","imgNWTK/triangle.png","imgNWTK/square.png","imgNWTK/triangle.png","noninfo","optim","2.71","","32","2","1","0","null","imgNWTK/square.png","imgNWTK/triangle.png","imgNWTK/triangle.png","NaN","NaN","","",""
"587","","","bandit-task-exp6","42","1243184","0.0-8.0-0.2","female","18","Australia","606","24681","imgNWTK/square.png","imgNWTK/triangle.png","imgNWTK/square.png","imgNWTK/triangle.png","noninfo","optim","2.71","","33","1","1","88","null","imgNWTK/triangle.png","imgNWTK/square.png","imgNWTK/square.png","NaN","NaN","","",""
"762","","","bandit-task-exp6","43","1266267","0.0-8.0-0.3","female","18","Australia","606","24681","imgNWTK/square.png","imgNWTK/triangle.png","imgNWTK/square.png","imgNWTK/triangle.png","noninfo","optim","2.71","","34","2","1","0","null","imgNWTK/square.png","imgNWTK/triangle.png","imgNWTK/triangle.png","NaN","NaN","","",""
"675","","","bandit-task-exp6","44","1290065","0.0-8.0-0.4","female","18","Australia","606","24681","imgNWTK/square.png","imgNWTK/triangle.png","imgNWTK/square.png","imgNWTK/triangle.png","noninfo","optim","2.71","","35","1","1","77","null","imgNWTK/triangle.png","imgNWTK/square.png","imgNWTK/square.png","NaN","NaN","","",""
"659","","","bandit-task-exp6","45","1314524","0.0-8.0-0.5","female","18","Australia","606","24681","imgNWTK/square.png","imgNWTK/triangle.png","imgNWTK/square.png","imgNWTK/triangle.png","noninfo","optim","2.71","","36","1","2","0","null","imgNWTK/triangle.png","imgNWTK/square.png","imgNWTK/square.png","NaN","NaN","","",""
"1267","","","bandit-task-exp6","46","1337707","0.0-8.0-0.6","female","18","Australia","606","24681","imgNWTK/square.png","imgNWTK/triangle.png","imgNWTK/square.png","imgNWTK/triangle.png","noninfo","optim","2.71","","37","1","1","89","null","imgNWTK/triangle.png","imgNWTK/square.png","imgNWTK/square.png","NaN","NaN","","",""
"577","","","bandit-task-exp6","47","1361774","0.0-8.0-0.7","female","18","Australia","606","24681","imgNWTK/square.png","imgNWTK/triangle.png","imgNWTK/square.png","imgNWTK/triangle.png","noninfo","optim","2.71","","38","2","1","0","null","imgNWTK/square.png","imgNWTK/triangle.png","imgNWTK/triangle.png","NaN","NaN","","",""
"1397","","","bandit-task-exp6","48","1386852","0.0-8.0-0.8","female","18","Australia","606","24681","imgNWTK/square.png","imgNWTK/triangle.png","imgNWTK/square.png","imgNWTK/triangle.png","noninfo","optim","2.71","","39","2","2","114","null","imgNWTK/square.png","imgNWTK/triangle.png","imgNWTK/triangle.png","NaN","NaN","","",""
"854","","","bandit-task-exp6","49","1409695","0.0-8.0-0.9","female","18","Australia","606","24681","imgNWTK/square.png","imgNWTK/triangle.png","imgNWTK/square.png","imgNWTK/triangle.png","noninfo","optim","2.71","","40","1","1","82","null","imgNWTK/triangle.png","imgNWTK/square.png","imgNWTK/square.png","NaN","NaN","","",""
"534","","","bandit-task-exp6","50","1432591","0.0-8.0-0.10","female","18","Australia","606","24681","imgNWTK/square.png","imgNWTK/triangle.png","imgNWTK/square.png","imgNWTK/triangle.png","noninfo","optim","2.71","","41","1","1","90","null","imgNWTK/triangle.png","imgNWTK/square.png","imgNWTK/square.png","NaN","NaN","","",""
"624","","","bandit-task-exp6","51","1455639","0.0-8.0-0.11","female","18","Australia","606","24681","imgNWTK/square.png","imgNWTK/triangle.png","imgNWTK/square.png","imgNWTK/triangle.png","noninfo","optim","2.71","","42","2","1","0","null","imgNWTK/square.png","imgNWTK/triangle.png","imgNWTK/triangle.png","NaN","NaN","","",""
"1144","","","bandit-task-exp6","52","1478886","0.0-8.0-0.12","female","18","Australia","606","24681","imgNWTK/square.png","imgNWTK/triangle.png","imgNWTK/square.png","imgNWTK/triangle.png","noninfo","optim","2.71","","43","2","1","0","null","imgNWTK/square.png","imgNWTK/triangle.png","imgNWTK/triangle.png","NaN","NaN","","",""
"642","","","bandit-task-exp6","53","1501864","0.0-8.0-0.13","female","18","Australia","606","24681","imgNWTK/square.png","imgNWTK/triangle.png","imgNWTK/square.png","imgNWTK/triangle.png","noninfo","optim","2.71","","44","1","2","0","null","imgNWTK/triangle.png","imgNWTK/square.png","imgNWTK/square.png","NaN","NaN","","",""
"616","","","bandit-task-exp6","54","1525104","0.0-8.0-0.14","female","18","Australia","606","24681","imgNWTK/square.png","imgNWTK/triangle.png","imgNWTK/square.png","imgNWTK/triangle.png","noninfo","optim","2.71","","45","2","1","0","null","imgNWTK/square.png","imgNWTK/triangle.png","imgNWTK/triangle.png","NaN","NaN","","",""
"null","<p><b> Congratulations, you have finished this block. </b> </p><p>Please take a short break before moving onto the next block.</p><p>The next block will start after a 15 second break.</p><b>Remember, the point rewards are the same between blocks","","html-keyboard-response","55","1540108","0.0-9.0","female","18","Australia","606","24681","imgNWTK/square.png","imgNWTK/triangle.png","imgNWTK/square.png","imgNWTK/triangle.png","noninfo","optim","2.71","","","","","","","","","","","","null","",""
"20589","","","bandit-task-exp6","56","1584101","0.0-10.0-0.0","female","18","Australia","606","24681","imgNWTK/square.png","imgNWTK/triangle.png","imgNWTK/square.png","imgNWTK/triangle.png","noninfo","optim","2.71","","46","2","2","111","null","imgNWTK/square.png","imgNWTK/triangle.png","imgNWTK/triangle.png","0","120","","",""
"5715","","","bandit-task-exp6","57","1612676","0.0-10.0-0.1","female","18","Australia","606","24681","imgNWTK/square.png","imgNWTK/triangle.png","imgNWTK/square.png","imgNWTK/triangle.png","noninfo","optim","2.71","","47","2","1","0","null","imgNWTK/square.png","imgNWTK/triangle.png","imgNWTK/triangle.png","0","150","","",""
"5333","","","bandit-task-exp6","58","1640520","0.0-10.0-0.2","female","18","Australia","606","24681","imgNWTK/square.png","imgNWTK/triangle.png","imgNWTK/square.png","imgNWTK/triangle.png","noninfo","optim","2.71","","48","2","2","126","null","imgNWTK/square.png","imgNWTK/triangle.png","imgNWTK/triangle.png","0","150","","",""
"5429","","","bandit-task-exp6","59","1668724","0.0-10.0-0.3","female","18","Australia","606","24681","imgNWTK/square.png","imgNWTK/triangle.png","imgNWTK/square.png","imgNWTK/triangle.png","noninfo","optim","2.71","","49","2","2","129","null","imgNWTK/square.png","imgNWTK/triangle.png","imgNWTK/triangle.png","0","170","","",""
"5243","","","bandit-task-exp6","60","1763480","0.0-10.0-0.4","female","18","Australia","606","24681","imgNWTK/square.png","imgNWTK/triangle.png","imgNWTK/square.png","imgNWTK/triangle.png","noninfo","optim","2.71","","50","1","1","74","null","imgNWTK/triangle.png","imgNWTK/square.png","imgNWTK/square.png","0","130","","",""
"6017","","","bandit-task-exp6","61","1802667","0.0-10.0-0.5","female","18","Australia","606","24681","imgNWTK/square.png","imgNWTK/triangle.png","imgNWTK/square.png","imgNWTK/triangle.png","noninfo","optim","2.71","","51","1","2","0","null","imgNWTK/triangle.png","imgNWTK/square.png","imgNWTK/square.png","0","120","","",""
"15436","","","bandit-task-exp6","62","1850087","0.0-10.0-0.6","female","18","Australia","606","24681","imgNWTK/square.png","imgNWTK/triangle.png","imgNWTK/square.png","imgNWTK/triangle.png","noninfo","optim","2.71","","52","1","1","85","null","imgNWTK/triangle.png","imgNWTK/square.png","imgNWTK/square.png","0","120","","",""
"60516","","","bandit-task-exp6","63","1949680","0.0-10.0-0.7","female","18","Australia","606","24681","imgNWTK/square.png","imgNWTK/triangle.png","imgNWTK/square.png","imgNWTK/triangle.png","noninfo","optim","2.71","","53","2","2","111","null","imgNWTK/square.png","imgNWTK/triangle.png","imgNWTK/triangle.png","0","120","","",""
"6740","","","bandit-task-exp6","64","1982254","0.0-10.0-0.8","female","18","Australia","606","24681","imgNWTK/square.png","imgNWTK/triangle.png","imgNWTK/square.png","imgNWTK/triangle.png","noninfo","optim","2.71","","54","2","2","129","null","imgNWTK/square.png","imgNWTK/triangle.png","imgNWTK/triangle.png","0","120","","",""
"6109","","","bandit-task-exp6","65","2010504","0.0-10.0-0.9","female","18","Australia","606","24681","imgNWTK/square.png","imgNWTK/triangle.png","imgNWTK/square.png","imgNWTK/triangle.png","noninfo","optim","2.71","","55","2","1","0","null","imgNWTK/square.png","imgNWTK/triangle.png","imgNWTK/triangle.png","0","120","","",""
"5448","","","bandit-task-exp6","66","2259232","0.0-10.0-0.10","female","18","Australia","606","24681","imgNWTK/square.png","imgNWTK/triangle.png","imgNWTK/square.png","imgNWTK/triangle.png","noninfo","optim","2.71","","56","1","1","71","null","imgNWTK/triangle.png","imgNWTK/square.png","imgNWTK/square.png","0","120","","",""
"4828","","","bandit-task-exp6","67","2286829","0.0-10.0-0.11","female","18","Australia","606","24681","imgNWTK/square.png","imgNWTK/triangle.png","imgNWTK/square.png","imgNWTK/triangle.png","noninfo","optim","2.71","","57","1","2","0","null","imgNWTK/triangle.png","imgNWTK/square.png","imgNWTK/square.png","0","120","","",""
"5478","","","bandit-task-exp6","68","2321439","0.0-10.0-0.12","female","18","Australia","606","24681","imgNWTK/square.png","imgNWTK/triangle.png","imgNWTK/square.png","imgNWTK/triangle.png","noninfo","optim","2.71","","58","1","2","0","null","imgNWTK/triangle.png","imgNWTK/square.png","imgNWTK/square.png","0","120","","",""
"12455","","","bandit-task-exp6","69","2356644","0.0-10.0-0.13","female","18","Australia","606","24681","imgNWTK/square.png","imgNWTK/triangle.png","imgNWTK/square.png","imgNWTK/triangle.png","noninfo","optim","2.71","","59","2","1","0","null","imgNWTK/square.png","imgNWTK/triangle.png","imgNWTK/triangle.png","0","120","","",""
"6062","","","bandit-task-exp6","70","2537439","0.0-10.0-0.14","female","18","Australia","606","24681","imgNWTK/square.png","imgNWTK/triangle.png","imgNWTK/square.png","imgNWTK/triangle.png","noninfo","optim","2.71","","60","1","2","0","null","imgNWTK/triangle.png","imgNWTK/square.png","imgNWTK/square.png","0","120","","",""
"2565","<p> Congratulations, you have finished the main part of the experiment. </p><p>Before you finish, we have a few short questions about the options and outcomes you saw in the task.</p>","0","html-button-response","71","2540008","0.0-11.0","female","18","Australia","606","24681","imgNWTK/square.png","imgNWTK/triangle.png","imgNWTK/square.png","imgNWTK/triangle.png","noninfo","optim","2.71","","","","","","","","","","","","","",""
"4529","<p><b>Now, imagine that you clicked on the below button for another 10 trials (this includes <i> BOTH WIN and NO-WIN trials</i>).</p> <img src= 'imgNWTK/square.png'></img></br></br> <p><b>Please type the reward (number of points) you would expect to receive on every trial.</br> Click start to begin.</p>","0","html-button-response","72","2544541","0.0-12.0","female","18","Australia","606","24681","imgNWTK/square.png","imgNWTK/triangle.png","imgNWTK/square.png","imgNWTK/triangle.png","noninfo","optim","2.71","","","","","","","","","","","","","",""
"21362.000000000466","","","survey-number","73","2565913","0.0-13.0-0.0","female","18","Australia","606","24681","imgNWTK/square.png","imgNWTK/triangle.png","imgNWTK/square.png","imgNWTK/triangle.png","noninfo","optim","2.71","{""undefined"":""0""}","","","","","","","","","","","","imgNWTK/square.png",""
"4567","","","survey-number","74","2570487","0.0-13.0-0.1","female","18","Australia","606","24681","imgNWTK/square.png","imgNWTK/triangle.png","imgNWTK/square.png","imgNWTK/triangle.png","noninfo","optim","2.71","{""undefined"":""120""}","","","","","","","","","","","","imgNWTK/square.png",""
"3391","","","survey-number","75","2573884","0.0-13.0-0.2","female","18","Australia","606","24681","imgNWTK/square.png","imgNWTK/triangle.png","imgNWTK/square.png","imgNWTK/triangle.png","noninfo","optim","2.71","{""undefined"":""30""}","","","","","","","","","","","","imgNWTK/square.png",""
"2212","","","survey-number","76","2576103","0.0-13.0-0.3","female","18","Australia","606","24681","imgNWTK/square.png","imgNWTK/triangle.png","imgNWTK/square.png","imgNWTK/triangle.png","noninfo","optim","2.71","{""undefined"":""150""}","","","","","","","","","","","","imgNWTK/square.png",""
"2230","","","survey-number","77","2578339","0.0-13.0-0.4","female","18","Australia","606","24681","imgNWTK/square.png","imgNWTK/triangle.png","imgNWTK/square.png","imgNWTK/triangle.png","noninfo","optim","2.71","{""undefined"":""160""}","","","","","","","","","","","","imgNWTK/square.png",""
"2619","","","survey-number","78","2580964","0.0-13.0-0.5","female","18","Australia","606","24681","imgNWTK/square.png","imgNWTK/triangle.png","imgNWTK/square.png","imgNWTK/triangle.png","noninfo","optim","2.71","{""undefined"":""170""}","","","","","","","","","","","","imgNWTK/square.png",""
"2720","","","survey-number","79","2583690","0.0-13.0-0.6","female","18","Australia","606","24681","imgNWTK/square.png","imgNWTK/triangle.png","imgNWTK/square.png","imgNWTK/triangle.png","noninfo","optim","2.71","{""undefined"":""280""}","","","","","","","","","","","","imgNWTK/square.png",""
"2496","","","survey-number","80","2586193","0.0-13.0-0.7","female","18","Australia","606","24681","imgNWTK/square.png","imgNWTK/triangle.png","imgNWTK/square.png","imgNWTK/triangle.png","noninfo","optim","2.71","{""undefined"":""300""}","","","","","","","","","","","","imgNWTK/square.png",""
"3773","","","survey-number","81","2589972","0.0-13.0-0.8","female","18","Australia","606","24681","imgNWTK/square.png","imgNWTK/triangle.png","imgNWTK/square.png","imgNWTK/triangle.png","noninfo","optim","2.71","{""undefined"":""70""}","","","","","","","","","","","","imgNWTK/square.png",""
"3916","","","survey-number","82","2593894","0.0-13.0-0.9","female","18","Australia","606","24681","imgNWTK/square.png","imgNWTK/triangle.png","imgNWTK/square.png","imgNWTK/triangle.png","noninfo","optim","2.71","{""undefined"":""90""}","","","","","","","","","","","","imgNWTK/square.png",""
"2171","<p><b>Imagine that you clicked on the below button for another 10 trials (this includes <i> both WIN and NO-WIN trials</i>).</p> <img src= 'imgNWTK/triangle.png'></img></br></br> <p><b>Please type the reward (number of points) you would expect to receive on every trial.</br> Click start to begin.</p>","0","html-button-response","83","2596068","0.0-14.0","female","18","Australia","606","24681","imgNWTK/square.png","imgNWTK/triangle.png","imgNWTK/square.png","imgNWTK/triangle.png","noninfo","optim","2.71","","","","","","","","","","","","","",""
"4218","","","survey-number","84","2600295","0.0-15.0-0.0","female","18","Australia","606","24681","imgNWTK/square.png","imgNWTK/triangle.png","imgNWTK/square.png","imgNWTK/triangle.png","noninfo","optim","2.71","{""undefined"":""120""}","","","","","","","","","","","","imgNWTK/triangle.png",""
"2139","","","survey-number","85","2602441","0.0-15.0-0.1","female","18","Australia","606","24681","imgNWTK/square.png","imgNWTK/triangle.png","imgNWTK/square.png","imgNWTK/triangle.png","noninfo","optim","2.71","{""undefined"":""400""}","","","","","","","","","","","","imgNWTK/triangle.png",""
"1959","","","survey-number","86","2604405","0.0-15.0-0.2","female","18","Australia","606","24681","imgNWTK/square.png","imgNWTK/triangle.png","imgNWTK/square.png","imgNWTK/triangle.png","noninfo","optim","2.71","{""undefined"":""50""}","","","","","","","","","","","","imgNWTK/triangle.png",""
"1853","","","survey-number","87","2606264","0.0-15.0-0.3","female","18","Australia","606","24681","imgNWTK/square.png","imgNWTK/triangle.png","imgNWTK/square.png","imgNWTK/triangle.png","noninfo","optim","2.71","{""undefined"":""50""}","","","","","","","","","","","","imgNWTK/triangle.png",""
"1654.9999999995343","","","survey-number","88","2607925","0.0-15.0-0.4","female","18","Australia","606","24681","imgNWTK/square.png","imgNWTK/triangle.png","imgNWTK/square.png","imgNWTK/triangle.png","noninfo","optim","2.71","{""undefined"":""60""}","","","","","","","","","","","","imgNWTK/triangle.png",""
"1478","","","survey-number","89","2609409","0.0-15.0-0.5","female","18","Australia","606","24681","imgNWTK/square.png","imgNWTK/triangle.png","imgNWTK/square.png","imgNWTK/triangle.png","noninfo","optim","2.71","{""undefined"":""70""}","","","","","","","","","","","","imgNWTK/triangle.png",""
"2444","","","survey-number","90","2611859","0.0-15.0-0.6","female","18","Australia","606","24681","imgNWTK/square.png","imgNWTK/triangle.png","imgNWTK/square.png","imgNWTK/triangle.png","noninfo","optim","2.71","{""undefined"":""61""}","","","","","","","","","","","","imgNWTK/triangle.png",""
"2941","","","survey-number","91","2614806","0.0-15.0-0.7","female","18","Australia","606","24681","imgNWTK/square.png","imgNWTK/triangle.png","imgNWTK/square.png","imgNWTK/triangle.png","noninfo","optim","2.71","{""undefined"":""130""}","","","","","","","","","","","","imgNWTK/triangle.png",""
"3006.0000000004657","","","survey-number","92","2617817","0.0-15.0-0.8","female","18","Australia","606","24681","imgNWTK/square.png","imgNWTK/triangle.png","imgNWTK/square.png","imgNWTK/triangle.png","noninfo","optim","2.71","{""undefined"":""180""}","","","","","","","","","","","","imgNWTK/triangle.png",""
"2823","","","survey-number","93","2620644","0.0-15.0-0.9","female","18","Australia","606","24681","imgNWTK/square.png","imgNWTK/triangle.png","imgNWTK/square.png","imgNWTK/triangle.png","noninfo","optim","2.71","{""undefined"":""180""}","","","","","","","","","","","","imgNWTK/triangle.png",""
"7492","","","survey-number","94","2628142","0.0-16.0","female","18","Australia","606","24681","imgNWTK/square.png","imgNWTK/triangle.png","imgNWTK/square.png","imgNWTK/triangle.png","noninfo","optim","2.71","{""undefined"":""50""}","","","","","","","","","","","","","imgNWTK/square.png"
"3044.0000000004657","","","survey-number","95","2631192","0.0-17.0","female","18","Australia","606","24681","imgNWTK/square.png","imgNWTK/triangle.png","imgNWTK/square.png","imgNWTK/triangle.png","noninfo","optim","2.71","{""undefined"":""50""}","","","","","","","","","","","","","imgNWTK/triangle.png"
"15142","<p style=""text-align:left;"">Great! We are almost at the end of the study... (Please do not close the browser window yet.)</p><p> Your final points balance is 2708, which equals to a bonus payment of $2.71. Please collect your payment from Mathews Building Room 721 (Mon-Fri 9am-5pm); please email amy.x.li@unsw.edu.au at least 24 hours prior to collection so that this is ready for you.</p><p style=""text-align:left;"">To view the debriefing form, please click <a href=""./imgNWTK/debrief_3205.pdf"" target=""_blank"">here</a> to download a copy.</p><p style=""text-align:left;"">Then, <b>please click the below button</b> to confirm that you have received your debrief and to complete the study. Upon clicking ""Finish!"", your SONA credit will be automatically assigned.</p>","0","html-button-response","96","2646337","0.0-18.0","female","18","Australia","606","24681","imgNWTK/square.png","imgNWTK/triangle.png","imgNWTK/square.png","imgNWTK/triangle.png","noninfo","optim","2.71","","","","","","","","","","","","","",""
