"rt","stimulus","button_pressed","trial_type","trial_index","time_elapsed","internal_node_id","gender","age","language","PID","sona_id","subStim","optStim","stim1","stim2","infoCond","optimCond","bonus","responses","banditTrial","choice","cue","feedback","estimateData","leftOption","rightOption","choiceName","leftInput","rightInput","key_press","postQ","singleEst"
"5679","<p>Thank you for signing up to participate in SONA Study 465! <br> During this study, please focus on the experiment and refrain from activities such as:</p>- <b>Switching to other tabs on your browser (this will be monitored via the experiment)</br> - Using your mobile phone/cell phone</br> - Communicating with others</br></br></b><p>This way, you are helping to provide data that is useful for psychological research. We thank you for your cooperation!</p>","0","html-button-response","0","5683","0.0-0.0","female","18","Australia","92869","24902","imgNWTK/KeepItSecret.jpg","imgNWTK/FindOutNow.jpg","imgNWTK/KeepItSecret.jpg","imgNWTK/FindOutNow.jpg","info","sub","3.25","","","","","","","","","","","","","",""
"1662","<p>Welcome to the experiment!</p><p>You will now read some instructions about the task. Press the 'Next' button to continue. </p>","0","html-button-response","1","7348","0.0-1.0","female","18","Australia","92869","24902","imgNWTK/KeepItSecret.jpg","imgNWTK/FindOutNow.jpg","imgNWTK/KeepItSecret.jpg","imgNWTK/FindOutNow.jpg","info","sub","3.25","","","","","","","","","","","","","",""
"25396","<p> On each trial throughout the experiment you will choose between the options </br><b> Find Out Now </b> and <b> Keep It Secret </b>, as shown below.</p><div><div style= 'float: left; width: 300px; margin: 10px 10px;'><img src= 'imgNWTK/KeepItSecret.jpg'></img></div><div style= 'float: right; width: 300px; margin: 10px 10px;'><img src= 'imgNWTK/FindOutNow.jpg'></img></div></div><br/><br/><br/><br/><br/><br/><br/><br/><br/><br/><br/><p>Each option results in winning points or receiving 0 points.</br>There is a 50% chance of either winning or receiving 0 points.</p><p>You won't receive the outcome until after a <b> 20 second delay</b>. However, selecting the Find Out Now option will allow you to find out about the outcome early, whereas the Keep It Secret option will not. </p>","0","html-button-response","2","32748","0.0-2.0-0.0","female","18","Australia","92869","24902","imgNWTK/KeepItSecret.jpg","imgNWTK/FindOutNow.jpg","imgNWTK/KeepItSecret.jpg","imgNWTK/FindOutNow.jpg","info","sub","3.25","","","","","","","","","","","","","",""
"18180","<img src= 'cues/Experiment6.png'></img><p>As seen above, when choosing the <b>'Find Out Now'</b> option, you will receive either a happy face or sad face.</br>The happy face means you will win points after the delay, whereas the sad face means you will receive 0 points.</br></p><p> When choosing the <b> 'Keep it Secret' </b> option you will receive a confused face.</br> This face appears regardless of whether you are going to win points or not. </p>In short, choosing 'Find Out Now' allows you to find out the outcome before you experience it (after the delay).</br></br>","0","html-button-response","3","50931","0.0-2.0-1.0","female","18","Australia","92869","24902","imgNWTK/KeepItSecret.jpg","imgNWTK/FindOutNow.jpg","imgNWTK/KeepItSecret.jpg","imgNWTK/FindOutNow.jpg","info","sub","3.25","","","","","","","","","","","","","",""
"5198","<img src= 'cues/winTrials_info.png' width = '1200'></img><p>To reiterate, 50% of the outcomes of each option will be WIN TRIALS, and the other 50% will be NO-WIN TRIALS.","0","html-button-response","4","56132","0.0-2.0-2.0","female","18","Australia","92869","24902","imgNWTK/KeepItSecret.jpg","imgNWTK/FindOutNow.jpg","imgNWTK/KeepItSecret.jpg","imgNWTK/FindOutNow.jpg","info","sub","3.25","","","","","","","","","","","","","",""
"11963","<p> There will be <b>four blocks</b> in the experiment.</br>You will be given a short 15 second break between each block.</p><p><b>The points and the options will remain the same between the blocks.</b></p>The blocks are there just to give you a small break.</br></br><p>The points you earn in the task are also equal to <b> actual money</b>.</br> <b>1000 points is equal to $1.</b></p><p>This is the rate you will be paid at the experiment's end.","0","html-button-response","5","68098","0.0-2.0-3.0","female","18","Australia","92869","24902","imgNWTK/KeepItSecret.jpg","imgNWTK/FindOutNow.jpg","imgNWTK/KeepItSecret.jpg","imgNWTK/FindOutNow.jpg","info","sub","3.25","","","","","","","","","","","","","",""
"17758","","","survey-multi-choice","6","85867","0.0-2.0-4.0","female","18","Australia","92869","24902","imgNWTK/KeepItSecret.jpg","imgNWTK/FindOutNow.jpg","imgNWTK/KeepItSecret.jpg","imgNWTK/FindOutNow.jpg","info","sub","3.25","{""Q0"":""20 Seconds"",""Q1"":""True"",""Q2"":""Equally"",""Q3"":""True""}","","","","","","","","","","","","",""
"4139","<p> Well done, all your answers were correct! <br> The experiment is about to start now. <br/> Click start to continue, or email your researcher <b>(amy.x.li@unsw.edu.au)</b> if you have any questions before starting.","0","html-button-response","7","90015","0.0-3.0","female","18","Australia","92869","24902","imgNWTK/KeepItSecret.jpg","imgNWTK/FindOutNow.jpg","imgNWTK/KeepItSecret.jpg","imgNWTK/FindOutNow.jpg","info","sub","3.25","","","","","","","","","","","","","",""
"9218","","","bandit-task-exp6","8","102399","0.0-4.0-0.0","female","18","Australia","92869","24902","imgNWTK/KeepItSecret.jpg","imgNWTK/FindOutNow.jpg","imgNWTK/KeepItSecret.jpg","imgNWTK/FindOutNow.jpg","info","sub","3.25","","1","2","2","72","null","imgNWTK/FindOutNow.jpg","imgNWTK/KeepItSecret.jpg","imgNWTK/FindOutNow.jpg","NaN","NaN","","",""
"3393","","","bandit-task-exp6","9","108614","0.0-4.0-0.1","female","18","Australia","92869","24902","imgNWTK/KeepItSecret.jpg","imgNWTK/FindOutNow.jpg","imgNWTK/KeepItSecret.jpg","imgNWTK/FindOutNow.jpg","info","sub","3.25","","2","2","1","0","null","imgNWTK/KeepItSecret.jpg","imgNWTK/FindOutNow.jpg","imgNWTK/FindOutNow.jpg","NaN","NaN","","",""
"2897","","","bandit-task-exp6","10","113899","0.0-4.0-0.2","female","18","Australia","92869","24902","imgNWTK/KeepItSecret.jpg","imgNWTK/FindOutNow.jpg","imgNWTK/KeepItSecret.jpg","imgNWTK/FindOutNow.jpg","info","sub","3.25","","3","2","1","0","null","imgNWTK/KeepItSecret.jpg","imgNWTK/FindOutNow.jpg","imgNWTK/FindOutNow.jpg","NaN","NaN","","",""
"613","","","bandit-task-exp6","11","117117","0.0-4.0-0.3","female","18","Australia","92869","24902","imgNWTK/KeepItSecret.jpg","imgNWTK/FindOutNow.jpg","imgNWTK/KeepItSecret.jpg","imgNWTK/FindOutNow.jpg","info","sub","3.25","","4","1","1","122","null","imgNWTK/KeepItSecret.jpg","imgNWTK/FindOutNow.jpg","imgNWTK/KeepItSecret.jpg","NaN","NaN","","",""
"1177","","","bandit-task-exp6","12","120665","0.0-4.0-0.4","female","18","Australia","92869","24902","imgNWTK/KeepItSecret.jpg","imgNWTK/FindOutNow.jpg","imgNWTK/KeepItSecret.jpg","imgNWTK/FindOutNow.jpg","info","sub","3.25","","5","2","1","0","null","imgNWTK/FindOutNow.jpg","imgNWTK/KeepItSecret.jpg","imgNWTK/FindOutNow.jpg","NaN","NaN","","",""
"996","","","bandit-task-exp6","13","124048","0.0-4.0-0.5","female","18","Australia","92869","24902","imgNWTK/KeepItSecret.jpg","imgNWTK/FindOutNow.jpg","imgNWTK/KeepItSecret.jpg","imgNWTK/FindOutNow.jpg","info","sub","3.25","","6","1","2","0","null","imgNWTK/KeepItSecret.jpg","imgNWTK/FindOutNow.jpg","imgNWTK/KeepItSecret.jpg","NaN","NaN","","",""
"594","","","bandit-task-exp6","14","127014","0.0-4.0-0.6","female","18","Australia","92869","24902","imgNWTK/KeepItSecret.jpg","imgNWTK/FindOutNow.jpg","imgNWTK/KeepItSecret.jpg","imgNWTK/FindOutNow.jpg","info","sub","3.25","","7","1","1","121","null","imgNWTK/KeepItSecret.jpg","imgNWTK/FindOutNow.jpg","imgNWTK/KeepItSecret.jpg","NaN","NaN","","",""
"2679","","","bandit-task-exp6","15","132114","0.0-4.0-0.7","female","18","Australia","92869","24902","imgNWTK/KeepItSecret.jpg","imgNWTK/FindOutNow.jpg","imgNWTK/KeepItSecret.jpg","imgNWTK/FindOutNow.jpg","info","sub","3.25","","8","1","1","123","null","imgNWTK/FindOutNow.jpg","imgNWTK/KeepItSecret.jpg","imgNWTK/KeepItSecret.jpg","NaN","NaN","","",""
"2446","","","bandit-task-exp6","16","136681","0.0-4.0-0.8","female","18","Australia","92869","24902","imgNWTK/KeepItSecret.jpg","imgNWTK/FindOutNow.jpg","imgNWTK/KeepItSecret.jpg","imgNWTK/FindOutNow.jpg","info","sub","3.25","","9","2","2","79","null","imgNWTK/KeepItSecret.jpg","imgNWTK/FindOutNow.jpg","imgNWTK/FindOutNow.jpg","NaN","NaN","","",""
"1429","","","bandit-task-exp6","17","140399","0.0-4.0-0.9","female","18","Australia","92869","24902","imgNWTK/KeepItSecret.jpg","imgNWTK/FindOutNow.jpg","imgNWTK/KeepItSecret.jpg","imgNWTK/FindOutNow.jpg","info","sub","3.25","","10","2","2","87","null","imgNWTK/KeepItSecret.jpg","imgNWTK/FindOutNow.jpg","imgNWTK/FindOutNow.jpg","NaN","NaN","","",""
"895","","","bandit-task-exp6","18","143648","0.0-4.0-0.10","female","18","Australia","92869","24902","imgNWTK/KeepItSecret.jpg","imgNWTK/FindOutNow.jpg","imgNWTK/KeepItSecret.jpg","imgNWTK/FindOutNow.jpg","info","sub","3.25","","11","1","2","0","null","imgNWTK/KeepItSecret.jpg","imgNWTK/FindOutNow.jpg","imgNWTK/KeepItSecret.jpg","NaN","NaN","","",""
"1280","","","bandit-task-exp6","19","147165","0.0-4.0-0.11","female","18","Australia","92869","24902","imgNWTK/KeepItSecret.jpg","imgNWTK/FindOutNow.jpg","imgNWTK/KeepItSecret.jpg","imgNWTK/FindOutNow.jpg","info","sub","3.25","","12","1","2","0","null","imgNWTK/FindOutNow.jpg","imgNWTK/KeepItSecret.jpg","imgNWTK/KeepItSecret.jpg","NaN","NaN","","",""
"945","","","bandit-task-exp6","20","150498","0.0-4.0-0.12","female","18","Australia","92869","24902","imgNWTK/KeepItSecret.jpg","imgNWTK/FindOutNow.jpg","imgNWTK/KeepItSecret.jpg","imgNWTK/FindOutNow.jpg","info","sub","3.25","","13","1","2","0","null","imgNWTK/KeepItSecret.jpg","imgNWTK/FindOutNow.jpg","imgNWTK/KeepItSecret.jpg","NaN","NaN","","",""
"812","","","bandit-task-exp6","21","153665","0.0-4.0-0.13","female","18","Australia","92869","24902","imgNWTK/KeepItSecret.jpg","imgNWTK/FindOutNow.jpg","imgNWTK/KeepItSecret.jpg","imgNWTK/FindOutNow.jpg","info","sub","3.25","","14","1","1","123","null","imgNWTK/FindOutNow.jpg","imgNWTK/KeepItSecret.jpg","imgNWTK/KeepItSecret.jpg","NaN","NaN","","",""
"895","","","bandit-task-exp6","22","156997","0.0-4.0-0.14","female","18","Australia","92869","24902","imgNWTK/KeepItSecret.jpg","imgNWTK/FindOutNow.jpg","imgNWTK/KeepItSecret.jpg","imgNWTK/FindOutNow.jpg","info","sub","3.25","","15","2","2","83","null","imgNWTK/KeepItSecret.jpg","imgNWTK/FindOutNow.jpg","imgNWTK/FindOutNow.jpg","NaN","NaN","","",""
"null","<p><b> Congratulations, you have finished this block. </b> </p><p>Please take a short break before moving onto the next block.</p><p>The next block will start after a 15 second break.</p><b>Remember, the point rewards are the same between blocks","","html-keyboard-response","23","172005","0.0-5.0","female","18","Australia","92869","24902","imgNWTK/KeepItSecret.jpg","imgNWTK/FindOutNow.jpg","imgNWTK/KeepItSecret.jpg","imgNWTK/FindOutNow.jpg","info","sub","3.25","","","","","","","","","","","","null","",""
"2120","","","bandit-task-exp6","24","176514","0.0-6.0-0.0","female","18","Australia","92869","24902","imgNWTK/KeepItSecret.jpg","imgNWTK/FindOutNow.jpg","imgNWTK/KeepItSecret.jpg","imgNWTK/FindOutNow.jpg","info","sub","3.25","","16","1","2","0","null","imgNWTK/FindOutNow.jpg","imgNWTK/KeepItSecret.jpg","imgNWTK/KeepItSecret.jpg","NaN","NaN","","",""
"646","","","bandit-task-exp6","25","179549","0.0-6.0-0.1","female","18","Australia","92869","24902","imgNWTK/KeepItSecret.jpg","imgNWTK/FindOutNow.jpg","imgNWTK/KeepItSecret.jpg","imgNWTK/FindOutNow.jpg","info","sub","3.25","","17","1","2","0","null","imgNWTK/FindOutNow.jpg","imgNWTK/KeepItSecret.jpg","imgNWTK/KeepItSecret.jpg","NaN","NaN","","",""
"2277","","","bandit-task-exp6","26","184465","0.0-6.0-0.2","female","18","Australia","92869","24902","imgNWTK/KeepItSecret.jpg","imgNWTK/FindOutNow.jpg","imgNWTK/KeepItSecret.jpg","imgNWTK/FindOutNow.jpg","info","sub","3.25","","18","2","2","86","null","imgNWTK/FindOutNow.jpg","imgNWTK/KeepItSecret.jpg","imgNWTK/FindOutNow.jpg","NaN","NaN","","",""
"1395","","","bandit-task-exp6","27","188248","0.0-6.0-0.3","female","18","Australia","92869","24902","imgNWTK/KeepItSecret.jpg","imgNWTK/FindOutNow.jpg","imgNWTK/KeepItSecret.jpg","imgNWTK/FindOutNow.jpg","info","sub","3.25","","19","2","2","73","null","imgNWTK/KeepItSecret.jpg","imgNWTK/FindOutNow.jpg","imgNWTK/FindOutNow.jpg","NaN","NaN","","",""
"1094","","","bandit-task-exp6","28","191680","0.0-6.0-0.4","female","18","Australia","92869","24902","imgNWTK/KeepItSecret.jpg","imgNWTK/FindOutNow.jpg","imgNWTK/KeepItSecret.jpg","imgNWTK/FindOutNow.jpg","info","sub","3.25","","20","1","2","0","null","imgNWTK/KeepItSecret.jpg","imgNWTK/FindOutNow.jpg","imgNWTK/KeepItSecret.jpg","NaN","NaN","","",""
"1297","","","bandit-task-exp6","29","195383","0.0-6.0-0.5","female","18","Australia","92869","24902","imgNWTK/KeepItSecret.jpg","imgNWTK/FindOutNow.jpg","imgNWTK/KeepItSecret.jpg","imgNWTK/FindOutNow.jpg","info","sub","3.25","","21","2","2","78","null","imgNWTK/KeepItSecret.jpg","imgNWTK/FindOutNow.jpg","imgNWTK/FindOutNow.jpg","NaN","NaN","","",""
"1027","","","bandit-task-exp6","30","199081","0.0-6.0-0.6","female","18","Australia","92869","24902","imgNWTK/KeepItSecret.jpg","imgNWTK/FindOutNow.jpg","imgNWTK/KeepItSecret.jpg","imgNWTK/FindOutNow.jpg","info","sub","3.25","","22","2","2","70","null","imgNWTK/KeepItSecret.jpg","imgNWTK/FindOutNow.jpg","imgNWTK/FindOutNow.jpg","NaN","NaN","","",""
"1178","","","bandit-task-exp6","31","202664","0.0-6.0-0.7","female","18","Australia","92869","24902","imgNWTK/KeepItSecret.jpg","imgNWTK/FindOutNow.jpg","imgNWTK/KeepItSecret.jpg","imgNWTK/FindOutNow.jpg","info","sub","3.25","","23","1","1","127","null","imgNWTK/KeepItSecret.jpg","imgNWTK/FindOutNow.jpg","imgNWTK/KeepItSecret.jpg","NaN","NaN","","",""
"1844","","","bandit-task-exp6","32","206847","0.0-6.0-0.8","female","18","Australia","92869","24902","imgNWTK/KeepItSecret.jpg","imgNWTK/FindOutNow.jpg","imgNWTK/KeepItSecret.jpg","imgNWTK/FindOutNow.jpg","info","sub","3.25","","24","1","2","0","null","imgNWTK/KeepItSecret.jpg","imgNWTK/FindOutNow.jpg","imgNWTK/KeepItSecret.jpg","NaN","NaN","","",""
"1646","","","bandit-task-exp6","33","211164","0.0-6.0-0.9","female","18","Australia","92869","24902","imgNWTK/KeepItSecret.jpg","imgNWTK/FindOutNow.jpg","imgNWTK/KeepItSecret.jpg","imgNWTK/FindOutNow.jpg","info","sub","3.25","","25","2","2","73","null","imgNWTK/FindOutNow.jpg","imgNWTK/KeepItSecret.jpg","imgNWTK/FindOutNow.jpg","NaN","NaN","","",""
"1012","","","bandit-task-exp6","34","214432","0.0-6.0-0.10","female","18","Australia","92869","24902","imgNWTK/KeepItSecret.jpg","imgNWTK/FindOutNow.jpg","imgNWTK/KeepItSecret.jpg","imgNWTK/FindOutNow.jpg","info","sub","3.25","","26","2","1","0","null","imgNWTK/KeepItSecret.jpg","imgNWTK/FindOutNow.jpg","imgNWTK/FindOutNow.jpg","NaN","NaN","","",""
"911","","","bandit-task-exp6","35","217715","0.0-6.0-0.11","female","18","Australia","92869","24902","imgNWTK/KeepItSecret.jpg","imgNWTK/FindOutNow.jpg","imgNWTK/KeepItSecret.jpg","imgNWTK/FindOutNow.jpg","info","sub","3.25","","27","1","1","110","null","imgNWTK/KeepItSecret.jpg","imgNWTK/FindOutNow.jpg","imgNWTK/KeepItSecret.jpg","NaN","NaN","","",""
"995","","","bandit-task-exp6","36","221131","0.0-6.0-0.12","female","18","Australia","92869","24902","imgNWTK/KeepItSecret.jpg","imgNWTK/FindOutNow.jpg","imgNWTK/KeepItSecret.jpg","imgNWTK/FindOutNow.jpg","info","sub","3.25","","28","1","1","128","null","imgNWTK/FindOutNow.jpg","imgNWTK/KeepItSecret.jpg","imgNWTK/KeepItSecret.jpg","NaN","NaN","","",""
"928","","","bandit-task-exp6","37","224433","0.0-6.0-0.13","female","18","Australia","92869","24902","imgNWTK/KeepItSecret.jpg","imgNWTK/FindOutNow.jpg","imgNWTK/KeepItSecret.jpg","imgNWTK/FindOutNow.jpg","info","sub","3.25","","29","2","1","0","null","imgNWTK/FindOutNow.jpg","imgNWTK/KeepItSecret.jpg","imgNWTK/FindOutNow.jpg","NaN","NaN","","",""
"794","","","bandit-task-exp6","38","227614","0.0-6.0-0.14","female","18","Australia","92869","24902","imgNWTK/KeepItSecret.jpg","imgNWTK/FindOutNow.jpg","imgNWTK/KeepItSecret.jpg","imgNWTK/FindOutNow.jpg","info","sub","3.25","","30","2","2","86","null","imgNWTK/KeepItSecret.jpg","imgNWTK/FindOutNow.jpg","imgNWTK/FindOutNow.jpg","NaN","NaN","","",""
"null","<p><b> Congratulations, you have finished this block. </b> </p><p>Please take a short break before moving onto the next block.</p><p>The next block will start after a 15 second break.</p><b>Remember, the point rewards are the same between blocks","","html-keyboard-response","39","242621","0.0-7.0","female","18","Australia","92869","24902","imgNWTK/KeepItSecret.jpg","imgNWTK/FindOutNow.jpg","imgNWTK/KeepItSecret.jpg","imgNWTK/FindOutNow.jpg","info","sub","3.25","","","","","","","","","","","","null","",""
"955","","","bandit-task-exp6","40","245930","0.0-8.0-0.0","female","18","Australia","92869","24902","imgNWTK/KeepItSecret.jpg","imgNWTK/FindOutNow.jpg","imgNWTK/KeepItSecret.jpg","imgNWTK/FindOutNow.jpg","info","sub","3.25","","31","2","1","0","null","imgNWTK/KeepItSecret.jpg","imgNWTK/FindOutNow.jpg","imgNWTK/FindOutNow.jpg","NaN","NaN","","",""
"564","","","bandit-task-exp6","41","248831","0.0-8.0-0.1","female","18","Australia","92869","24902","imgNWTK/KeepItSecret.jpg","imgNWTK/FindOutNow.jpg","imgNWTK/KeepItSecret.jpg","imgNWTK/FindOutNow.jpg","info","sub","3.25","","32","1","2","0","null","imgNWTK/FindOutNow.jpg","imgNWTK/KeepItSecret.jpg","imgNWTK/KeepItSecret.jpg","NaN","NaN","","",""
"497","","","bandit-task-exp6","42","251699","0.0-8.0-0.2","female","18","Australia","92869","24902","imgNWTK/KeepItSecret.jpg","imgNWTK/FindOutNow.jpg","imgNWTK/KeepItSecret.jpg","imgNWTK/FindOutNow.jpg","info","sub","3.25","","33","2","2","89","null","imgNWTK/KeepItSecret.jpg","imgNWTK/FindOutNow.jpg","imgNWTK/FindOutNow.jpg","NaN","NaN","","",""
"910","","","bandit-task-exp6","43","254747","0.0-8.0-0.3","female","18","Australia","92869","24902","imgNWTK/KeepItSecret.jpg","imgNWTK/FindOutNow.jpg","imgNWTK/KeepItSecret.jpg","imgNWTK/FindOutNow.jpg","info","sub","3.25","","34","2","1","0","null","imgNWTK/KeepItSecret.jpg","imgNWTK/FindOutNow.jpg","imgNWTK/FindOutNow.jpg","NaN","NaN","","",""
"779","","","bandit-task-exp6","44","257880","0.0-8.0-0.4","female","18","Australia","92869","24902","imgNWTK/KeepItSecret.jpg","imgNWTK/FindOutNow.jpg","imgNWTK/KeepItSecret.jpg","imgNWTK/FindOutNow.jpg","info","sub","3.25","","35","1","2","0","null","imgNWTK/KeepItSecret.jpg","imgNWTK/FindOutNow.jpg","imgNWTK/KeepItSecret.jpg","NaN","NaN","","",""
"680","","","bandit-task-exp6","45","260931","0.0-8.0-0.5","female","18","Australia","92869","24902","imgNWTK/KeepItSecret.jpg","imgNWTK/FindOutNow.jpg","imgNWTK/KeepItSecret.jpg","imgNWTK/FindOutNow.jpg","info","sub","3.25","","36","1","1","116","null","imgNWTK/KeepItSecret.jpg","imgNWTK/FindOutNow.jpg","imgNWTK/KeepItSecret.jpg","NaN","NaN","","",""
"1728","","","bandit-task-exp6","46","264999","0.0-8.0-0.6","female","18","Australia","92869","24902","imgNWTK/KeepItSecret.jpg","imgNWTK/FindOutNow.jpg","imgNWTK/KeepItSecret.jpg","imgNWTK/FindOutNow.jpg","info","sub","3.25","","37","1","2","0","null","imgNWTK/FindOutNow.jpg","imgNWTK/KeepItSecret.jpg","imgNWTK/KeepItSecret.jpg","NaN","NaN","","",""
"794","","","bandit-task-exp6","47","268047","0.0-8.0-0.7","female","18","Australia","92869","24902","imgNWTK/KeepItSecret.jpg","imgNWTK/FindOutNow.jpg","imgNWTK/KeepItSecret.jpg","imgNWTK/FindOutNow.jpg","info","sub","3.25","","38","2","1","0","null","imgNWTK/KeepItSecret.jpg","imgNWTK/FindOutNow.jpg","imgNWTK/FindOutNow.jpg","NaN","NaN","","",""
"1412","","","bandit-task-exp6","48","271831","0.0-8.0-0.8","female","18","Australia","92869","24902","imgNWTK/KeepItSecret.jpg","imgNWTK/FindOutNow.jpg","imgNWTK/KeepItSecret.jpg","imgNWTK/FindOutNow.jpg","info","sub","3.25","","39","2","2","88","null","imgNWTK/KeepItSecret.jpg","imgNWTK/FindOutNow.jpg","imgNWTK/FindOutNow.jpg","NaN","NaN","","",""
"1146","","","bandit-task-exp6","49","275233","0.0-8.0-0.9","female","18","Australia","92869","24902","imgNWTK/KeepItSecret.jpg","imgNWTK/FindOutNow.jpg","imgNWTK/KeepItSecret.jpg","imgNWTK/FindOutNow.jpg","info","sub","3.25","","40","2","2","75","null","imgNWTK/KeepItSecret.jpg","imgNWTK/FindOutNow.jpg","imgNWTK/FindOutNow.jpg","NaN","NaN","","",""
"1411","","","bandit-task-exp6","50","278997","0.0-8.0-0.10","female","18","Australia","92869","24902","imgNWTK/KeepItSecret.jpg","imgNWTK/FindOutNow.jpg","imgNWTK/KeepItSecret.jpg","imgNWTK/FindOutNow.jpg","info","sub","3.25","","41","1","1","116","null","imgNWTK/FindOutNow.jpg","imgNWTK/KeepItSecret.jpg","imgNWTK/KeepItSecret.jpg","NaN","NaN","","",""
"1879","","","bandit-task-exp6","51","282947","0.0-8.0-0.11","female","18","Australia","92869","24902","imgNWTK/KeepItSecret.jpg","imgNWTK/FindOutNow.jpg","imgNWTK/KeepItSecret.jpg","imgNWTK/FindOutNow.jpg","info","sub","3.25","","42","2","1","0","null","imgNWTK/FindOutNow.jpg","imgNWTK/KeepItSecret.jpg","imgNWTK/FindOutNow.jpg","NaN","NaN","","",""
"814","","","bandit-task-exp6","52","286096","0.0-8.0-0.12","female","18","Australia","92869","24902","imgNWTK/KeepItSecret.jpg","imgNWTK/FindOutNow.jpg","imgNWTK/KeepItSecret.jpg","imgNWTK/FindOutNow.jpg","info","sub","3.25","","43","2","1","0","null","imgNWTK/KeepItSecret.jpg","imgNWTK/FindOutNow.jpg","imgNWTK/FindOutNow.jpg","NaN","NaN","","",""
"832","","","bandit-task-exp6","53","289247","0.0-8.0-0.13","female","18","Australia","92869","24902","imgNWTK/KeepItSecret.jpg","imgNWTK/FindOutNow.jpg","imgNWTK/KeepItSecret.jpg","imgNWTK/FindOutNow.jpg","info","sub","3.25","","44","2","1","0","null","imgNWTK/FindOutNow.jpg","imgNWTK/KeepItSecret.jpg","imgNWTK/FindOutNow.jpg","NaN","NaN","","",""
"847","","","bandit-task-exp6","54","292429","0.0-8.0-0.14","female","18","Australia","92869","24902","imgNWTK/KeepItSecret.jpg","imgNWTK/FindOutNow.jpg","imgNWTK/KeepItSecret.jpg","imgNWTK/FindOutNow.jpg","info","sub","3.25","","45","2","1","0","null","imgNWTK/KeepItSecret.jpg","imgNWTK/FindOutNow.jpg","imgNWTK/FindOutNow.jpg","NaN","NaN","","",""
"null","<p><b> Congratulations, you have finished this block. </b> </p><p>Please take a short break before moving onto the next block.</p><p>The next block will start after a 15 second break.</p><b>Remember, the point rewards are the same between blocks","","html-keyboard-response","55","307435","0.0-9.0","female","18","Australia","92869","24902","imgNWTK/KeepItSecret.jpg","imgNWTK/FindOutNow.jpg","imgNWTK/KeepItSecret.jpg","imgNWTK/FindOutNow.jpg","info","sub","3.25","","","","","","","","","","","","null","",""
"25456","","","bandit-task-exp6","56","336665","0.0-10.0-0.0","female","18","Australia","92869","24902","imgNWTK/KeepItSecret.jpg","imgNWTK/FindOutNow.jpg","imgNWTK/KeepItSecret.jpg","imgNWTK/FindOutNow.jpg","info","sub","3.25","","46","2","1","0","null","imgNWTK/KeepItSecret.jpg","imgNWTK/FindOutNow.jpg","imgNWTK/FindOutNow.jpg","86","127","","",""
"7793","","","bandit-task-exp6","57","348414","0.0-10.0-0.1","female","18","Australia","92869","24902","imgNWTK/KeepItSecret.jpg","imgNWTK/FindOutNow.jpg","imgNWTK/KeepItSecret.jpg","imgNWTK/FindOutNow.jpg","info","sub","3.25","","47","2","2","76","null","imgNWTK/FindOutNow.jpg","imgNWTK/KeepItSecret.jpg","imgNWTK/FindOutNow.jpg","116","100","","",""
"10078","","","bandit-task-exp6","58","362065","0.0-10.0-0.2","female","18","Australia","92869","24902","imgNWTK/KeepItSecret.jpg","imgNWTK/FindOutNow.jpg","imgNWTK/KeepItSecret.jpg","imgNWTK/FindOutNow.jpg","info","sub","3.25","","48","1","1","111","null","imgNWTK/KeepItSecret.jpg","imgNWTK/FindOutNow.jpg","imgNWTK/KeepItSecret.jpg","87","112","","",""
"9676","","","bandit-task-exp6","59","375163","0.0-10.0-0.3","female","18","Australia","92869","24902","imgNWTK/KeepItSecret.jpg","imgNWTK/FindOutNow.jpg","imgNWTK/KeepItSecret.jpg","imgNWTK/FindOutNow.jpg","info","sub","3.25","","49","2","2","86","null","imgNWTK/KeepItSecret.jpg","imgNWTK/FindOutNow.jpg","imgNWTK/FindOutNow.jpg","100","127","","",""
"13778","","","bandit-task-exp6","60","393530","0.0-10.0-0.4","female","18","Australia","92869","24902","imgNWTK/KeepItSecret.jpg","imgNWTK/FindOutNow.jpg","imgNWTK/KeepItSecret.jpg","imgNWTK/FindOutNow.jpg","info","sub","3.25","","50","1","1","127","null","imgNWTK/FindOutNow.jpg","imgNWTK/KeepItSecret.jpg","imgNWTK/KeepItSecret.jpg","90","111","","",""
"7971","","","bandit-task-exp6","61","404362","0.0-10.0-0.5","female","18","Australia","92869","24902","imgNWTK/KeepItSecret.jpg","imgNWTK/FindOutNow.jpg","imgNWTK/KeepItSecret.jpg","imgNWTK/FindOutNow.jpg","info","sub","3.25","","51","2","2","83","null","imgNWTK/FindOutNow.jpg","imgNWTK/KeepItSecret.jpg","imgNWTK/FindOutNow.jpg","70","100","","",""
"11212","","","bandit-task-exp6","62","418116","0.0-10.0-0.6","female","18","Australia","92869","24902","imgNWTK/KeepItSecret.jpg","imgNWTK/FindOutNow.jpg","imgNWTK/KeepItSecret.jpg","imgNWTK/FindOutNow.jpg","info","sub","3.25","","52","2","2","84","null","imgNWTK/KeepItSecret.jpg","imgNWTK/FindOutNow.jpg","imgNWTK/FindOutNow.jpg","127","86","","",""
"10127","","","bandit-task-exp6","63","431531","0.0-10.0-0.7","female","18","Australia","92869","24902","imgNWTK/KeepItSecret.jpg","imgNWTK/FindOutNow.jpg","imgNWTK/KeepItSecret.jpg","imgNWTK/FindOutNow.jpg","info","sub","3.25","","53","1","1","113","null","imgNWTK/KeepItSecret.jpg","imgNWTK/FindOutNow.jpg","imgNWTK/KeepItSecret.jpg","110","84","","",""
"12011","","","bandit-task-exp6","64","445863","0.0-10.0-0.8","female","18","Australia","92869","24902","imgNWTK/KeepItSecret.jpg","imgNWTK/FindOutNow.jpg","imgNWTK/KeepItSecret.jpg","imgNWTK/FindOutNow.jpg","info","sub","3.25","","54","2","1","0","null","imgNWTK/KeepItSecret.jpg","imgNWTK/FindOutNow.jpg","imgNWTK/FindOutNow.jpg","112","84","","",""
"8228","","","bandit-task-exp6","65","456864","0.0-10.0-0.9","female","18","Australia","92869","24902","imgNWTK/KeepItSecret.jpg","imgNWTK/FindOutNow.jpg","imgNWTK/KeepItSecret.jpg","imgNWTK/FindOutNow.jpg","info","sub","3.25","","55","1","1","115","null","imgNWTK/KeepItSecret.jpg","imgNWTK/FindOutNow.jpg","imgNWTK/KeepItSecret.jpg","100","80","","",""
"10947","","","bandit-task-exp6","66","470164","0.0-10.0-0.10","female","18","Australia","92869","24902","imgNWTK/KeepItSecret.jpg","imgNWTK/FindOutNow.jpg","imgNWTK/KeepItSecret.jpg","imgNWTK/FindOutNow.jpg","info","sub","3.25","","56","2","1","0","null","imgNWTK/FindOutNow.jpg","imgNWTK/KeepItSecret.jpg","imgNWTK/FindOutNow.jpg","74","100","","",""
"5611","","","bandit-task-exp6","67","478647","0.0-10.0-0.11","female","18","Australia","92869","24902","imgNWTK/KeepItSecret.jpg","imgNWTK/FindOutNow.jpg","imgNWTK/KeepItSecret.jpg","imgNWTK/FindOutNow.jpg","info","sub","3.25","","57","1","2","0","null","imgNWTK/FindOutNow.jpg","imgNWTK/KeepItSecret.jpg","imgNWTK/KeepItSecret.jpg","80","120","","",""
"8593","","","bandit-task-exp6","68","490013","0.0-10.0-0.12","female","18","Australia","92869","24902","imgNWTK/KeepItSecret.jpg","imgNWTK/FindOutNow.jpg","imgNWTK/KeepItSecret.jpg","imgNWTK/FindOutNow.jpg","info","sub","3.25","","58","1","1","130","null","imgNWTK/FindOutNow.jpg","imgNWTK/KeepItSecret.jpg","imgNWTK/KeepItSecret.jpg","87","110","","",""
"8394","","","bandit-task-exp6","69","500813","0.0-10.0-0.13","female","18","Australia","92869","24902","imgNWTK/KeepItSecret.jpg","imgNWTK/FindOutNow.jpg","imgNWTK/KeepItSecret.jpg","imgNWTK/FindOutNow.jpg","info","sub","3.25","","59","2","2","83","null","imgNWTK/KeepItSecret.jpg","imgNWTK/FindOutNow.jpg","imgNWTK/FindOutNow.jpg","125","90","","",""
"12429","","","bandit-task-exp6","70","515980","0.0-10.0-0.14","female","18","Australia","92869","24902","imgNWTK/KeepItSecret.jpg","imgNWTK/FindOutNow.jpg","imgNWTK/KeepItSecret.jpg","imgNWTK/FindOutNow.jpg","info","sub","3.25","","60","1","1","115","null","imgNWTK/KeepItSecret.jpg","imgNWTK/FindOutNow.jpg","imgNWTK/KeepItSecret.jpg","130","80","","",""
"2164","<p> Congratulations, you have finished the main part of the experiment. </p><p>Before you finish, we have a few short questions about the options and outcomes you saw in the task.</p>","0","html-button-response","71","518148","0.0-11.0","female","18","Australia","92869","24902","imgNWTK/KeepItSecret.jpg","imgNWTK/FindOutNow.jpg","imgNWTK/KeepItSecret.jpg","imgNWTK/FindOutNow.jpg","info","sub","3.25","","","","","","","","","","","","","",""
"8763","<p><b>Now, imagine that you clicked on the below button for another 10 trials (this includes <i> BOTH WIN and NO-WIN trials</i>).</p> <img src= 'imgNWTK/FindOutNow.jpg'></img></br></br> <p><b>Please type the reward (number of points) you would expect to receive on every trial.</br> Click start to begin.</p>","0","html-button-response","72","526913","0.0-12.0","female","18","Australia","92869","24902","imgNWTK/KeepItSecret.jpg","imgNWTK/FindOutNow.jpg","imgNWTK/KeepItSecret.jpg","imgNWTK/FindOutNow.jpg","info","sub","3.25","","","","","","","","","","","","","",""
"4462.799999713898","","","survey-number","73","531382","0.0-13.0-0.0","female","18","Australia","92869","24902","imgNWTK/KeepItSecret.jpg","imgNWTK/FindOutNow.jpg","imgNWTK/KeepItSecret.jpg","imgNWTK/FindOutNow.jpg","info","sub","3.25","{""undefined"":""86""}","","","","","","","","","","","","imgNWTK/FindOutNow.jpg",""
"6492.799999713898","","","survey-number","74","537879","0.0-13.0-0.1","female","18","Australia","92869","24902","imgNWTK/KeepItSecret.jpg","imgNWTK/FindOutNow.jpg","imgNWTK/KeepItSecret.jpg","imgNWTK/FindOutNow.jpg","info","sub","3.25","{""undefined"":""72""}","","","","","","","","","","","","imgNWTK/FindOutNow.jpg",""
"2282","","","survey-number","75","540163","0.0-13.0-0.2","female","18","Australia","92869","24902","imgNWTK/KeepItSecret.jpg","imgNWTK/FindOutNow.jpg","imgNWTK/KeepItSecret.jpg","imgNWTK/FindOutNow.jpg","info","sub","3.25","{""undefined"":""80""}","","","","","","","","","","","","imgNWTK/FindOutNow.jpg",""
"2661.9000000953674","","","survey-number","76","542829","0.0-13.0-0.3","female","18","Australia","92869","24902","imgNWTK/KeepItSecret.jpg","imgNWTK/FindOutNow.jpg","imgNWTK/KeepItSecret.jpg","imgNWTK/FindOutNow.jpg","info","sub","3.25","{""undefined"":""90""}","","","","","","","","","","","","imgNWTK/FindOutNow.jpg",""
"2848.5","","","survey-number","77","545679","0.0-13.0-0.4","female","18","Australia","92869","24902","imgNWTK/KeepItSecret.jpg","imgNWTK/FindOutNow.jpg","imgNWTK/KeepItSecret.jpg","imgNWTK/FindOutNow.jpg","info","sub","3.25","{""undefined"":""85""}","","","","","","","","","","","","imgNWTK/FindOutNow.jpg",""
"5080.700000286102","","","survey-number","78","550762","0.0-13.0-0.5","female","18","Australia","92869","24902","imgNWTK/KeepItSecret.jpg","imgNWTK/FindOutNow.jpg","imgNWTK/KeepItSecret.jpg","imgNWTK/FindOutNow.jpg","info","sub","3.25","{""undefined"":""96""}","","","","","","","","","","","","imgNWTK/FindOutNow.jpg",""
"4964.699999809265","","","survey-number","79","555729","0.0-13.0-0.6","female","18","Australia","92869","24902","imgNWTK/KeepItSecret.jpg","imgNWTK/FindOutNow.jpg","imgNWTK/KeepItSecret.jpg","imgNWTK/FindOutNow.jpg","info","sub","3.25","{""undefined"":""89""}","","","","","","","","","","","","imgNWTK/FindOutNow.jpg",""
"8680.900000095367","","","survey-number","80","564412","0.0-13.0-0.7","female","18","Australia","92869","24902","imgNWTK/KeepItSecret.jpg","imgNWTK/FindOutNow.jpg","imgNWTK/KeepItSecret.jpg","imgNWTK/FindOutNow.jpg","info","sub","3.25","{""undefined"":""100""}","","","","","","","","","","","","imgNWTK/FindOutNow.jpg",""
"2163.800000190735","","","survey-number","81","566579","0.0-13.0-0.8","female","18","Australia","92869","24902","imgNWTK/KeepItSecret.jpg","imgNWTK/FindOutNow.jpg","imgNWTK/KeepItSecret.jpg","imgNWTK/FindOutNow.jpg","info","sub","3.25","{""undefined"":""70""}","","","","","","","","","","","","imgNWTK/FindOutNow.jpg",""
"1964.8999996185303","","","survey-number","82","568545","0.0-13.0-0.9","female","18","Australia","92869","24902","imgNWTK/KeepItSecret.jpg","imgNWTK/FindOutNow.jpg","imgNWTK/KeepItSecret.jpg","imgNWTK/FindOutNow.jpg","info","sub","3.25","{""undefined"":""80""}","","","","","","","","","","","","imgNWTK/FindOutNow.jpg",""
"1566","<p><b>Imagine that you clicked on the below button for another 10 trials (this includes <i> both WIN and NO-WIN trials</i>).</p> <img src= 'imgNWTK/KeepItSecret.jpg'></img></br></br> <p><b>Please type the reward (number of points) you would expect to receive on every trial.</br> Click start to begin.</p>","0","html-button-response","83","570114","0.0-14.0","female","18","Australia","92869","24902","imgNWTK/KeepItSecret.jpg","imgNWTK/FindOutNow.jpg","imgNWTK/KeepItSecret.jpg","imgNWTK/FindOutNow.jpg","info","sub","3.25","","","","","","","","","","","","","",""
"2061.2999997138977","","","survey-number","84","572179","0.0-15.0-0.0","female","18","Australia","92869","24902","imgNWTK/KeepItSecret.jpg","imgNWTK/FindOutNow.jpg","imgNWTK/KeepItSecret.jpg","imgNWTK/FindOutNow.jpg","info","sub","3.25","{""undefined"":""100""}","","","","","","","","","","","","imgNWTK/KeepItSecret.jpg",""
"1297.6999998092651","","","survey-number","85","573479","0.0-15.0-0.1","female","18","Australia","92869","24902","imgNWTK/KeepItSecret.jpg","imgNWTK/FindOutNow.jpg","imgNWTK/KeepItSecret.jpg","imgNWTK/FindOutNow.jpg","info","sub","3.25","{""undefined"":""111""}","","","","","","","","","","","","imgNWTK/KeepItSecret.jpg",""
"1281.5","","","survey-number","86","574762","0.0-15.0-0.2","female","18","Australia","92869","24902","imgNWTK/KeepItSecret.jpg","imgNWTK/FindOutNow.jpg","imgNWTK/KeepItSecret.jpg","imgNWTK/FindOutNow.jpg","info","sub","3.25","{""undefined"":""120""}","","","","","","","","","","","","imgNWTK/KeepItSecret.jpg",""
"1214.5999999046326","","","survey-number","87","575979","0.0-15.0-0.3","female","18","Australia","92869","24902","imgNWTK/KeepItSecret.jpg","imgNWTK/FindOutNow.jpg","imgNWTK/KeepItSecret.jpg","imgNWTK/FindOutNow.jpg","info","sub","3.25","{""undefined"":""127""}","","","","","","","","","","","","imgNWTK/KeepItSecret.jpg",""
"1832","","","survey-number","88","577813","0.0-15.0-0.4","female","18","Australia","92869","24902","imgNWTK/KeepItSecret.jpg","imgNWTK/FindOutNow.jpg","imgNWTK/KeepItSecret.jpg","imgNWTK/FindOutNow.jpg","info","sub","3.25","{""undefined"":""130""}","","","","","","","","","","","","imgNWTK/KeepItSecret.jpg",""
"1480.5999999046326","","","survey-number","89","579295","0.0-15.0-0.5","female","18","Australia","92869","24902","imgNWTK/KeepItSecret.jpg","imgNWTK/FindOutNow.jpg","imgNWTK/KeepItSecret.jpg","imgNWTK/FindOutNow.jpg","info","sub","3.25","{""undefined"":""134""}","","","","","","","","","","","","imgNWTK/KeepItSecret.jpg",""
"1331.8000001907349","","","survey-number","90","580629","0.0-15.0-0.6","female","18","Australia","92869","24902","imgNWTK/KeepItSecret.jpg","imgNWTK/FindOutNow.jpg","imgNWTK/KeepItSecret.jpg","imgNWTK/FindOutNow.jpg","info","sub","3.25","{""undefined"":""124""}","","","","","","","","","","","","imgNWTK/KeepItSecret.jpg",""
"4081.4000000953674","","","survey-number","91","584712","0.0-15.0-0.7","female","18","Australia","92869","24902","imgNWTK/KeepItSecret.jpg","imgNWTK/FindOutNow.jpg","imgNWTK/KeepItSecret.jpg","imgNWTK/FindOutNow.jpg","info","sub","3.25","{""undefined"":""96""}","","","","","","","","","","","","imgNWTK/KeepItSecret.jpg",""
"2031.1999998092651","","","survey-number","92","586745","0.0-15.0-0.8","female","18","Australia","92869","24902","imgNWTK/KeepItSecret.jpg","imgNWTK/FindOutNow.jpg","imgNWTK/KeepItSecret.jpg","imgNWTK/FindOutNow.jpg","info","sub","3.25","{""undefined"":""112""}","","","","","","","","","","","","imgNWTK/KeepItSecret.jpg",""
"5381.599999904633","","","survey-number","93","592129","0.0-15.0-0.9","female","18","Australia","92869","24902","imgNWTK/KeepItSecret.jpg","imgNWTK/FindOutNow.jpg","imgNWTK/KeepItSecret.jpg","imgNWTK/FindOutNow.jpg","info","sub","3.25","{""undefined"":""125""}","","","","","","","","","","","","imgNWTK/KeepItSecret.jpg",""
"19513.900000095367","","","survey-number","94","611646","0.0-16.0","female","18","Australia","92869","24902","imgNWTK/KeepItSecret.jpg","imgNWTK/FindOutNow.jpg","imgNWTK/KeepItSecret.jpg","imgNWTK/FindOutNow.jpg","info","sub","3.25","{""undefined"":""110""}","","","","","","","","","","","","","imgNWTK/KeepItSecret.jpg"
"3480.5","","","survey-number","95","615128","0.0-17.0","female","18","Australia","92869","24902","imgNWTK/KeepItSecret.jpg","imgNWTK/FindOutNow.jpg","imgNWTK/KeepItSecret.jpg","imgNWTK/FindOutNow.jpg","info","sub","3.25","{""undefined"":""85""}","","","","","","","","","","","","","imgNWTK/FindOutNow.jpg"
"29466","<p style=""text-align:left;"">Great! We are almost at the end of the study... (Please do not close the browser window yet.)</p><p> Your final points balance is 3248, which equals to a bonus payment of $3.25. Please collect your payment from Mathews Building Room 721 (Mon-Fri 9am-5pm); please email amy.x.li@unsw.edu.au at least 24 hours prior to collection so that this is ready for you.</p><p style=""text-align:left;"">To view the debriefing form, please click <a href=""./imgNWTK/debrief_3205.pdf"" target=""_blank"">here</a> to download a copy.</p><p style=""text-align:left;"">Then, <b>please click the below button</b> to confirm that you have received your debrief and to complete the study. Upon clicking ""Finish!"", your SONA credit will be automatically assigned.</p>","0","html-button-response","96","644597","0.0-18.0","female","18","Australia","92869","24902","imgNWTK/KeepItSecret.jpg","imgNWTK/FindOutNow.jpg","imgNWTK/KeepItSecret.jpg","imgNWTK/FindOutNow.jpg","info","sub","3.25","","","","","","","","","","","","","",""
