"rt","stimulus","button_pressed","trial_type","trial_index","time_elapsed","internal_node_id","gender","age","language","PID","sona_id","subStim","optStim","stim1","stim2","infoCond","optimCond","bonus","responses","banditTrial","choice","cue","feedback","estimateData","leftOption","rightOption","choiceName","leftInput","rightInput","key_press","postQ","singleEst"
"2086","<p>Thank you for signing up to participate in SONA Study 476! <br> During this study, please focus on the experiment and refrain from activities such as:</p>- <b>Switching to other tabs on your browser (this will be monitored via the experiment)</br> - Using your mobile phone/cell phone</br> - Communicating with others</br></br></b><p>This way, you are helping to provide data that is useful for psychological research. We thank you for your cooperation!</p>","0","html-button-response","0","2092","0.0-0.0","female","18","Australia","28802","24626","neither","neither","imgNWTK/square.png","imgNWTK/triangle.png","noninfo","eq","3.31","","","","","","","","","","","","","",""
"717","<p>Welcome to the experiment!</p><p>You will now read some instructions about the task. Press the 'Next' button to continue. </p>","0","html-button-response","1","2811","0.0-1.0","female","18","Australia","28802","24626","neither","neither","imgNWTK/square.png","imgNWTK/triangle.png","noninfo","eq","3.31","","","","","","","","","","","","","",""
"7038","<p> On each trial throughout the experiment you will choose between two options, </br>a <b>Black Square </b> and <b> Black Triangle </b>, as seen below.</p><div><div style= 'float: left; width: 300px; margin: 10px 10px;'><img src= 'imgNWTK/square.png'></img></div><div style= 'float: right; width: 300px; margin: 10px 10px;'><img src= 'imgNWTK/triangle.png'></img></div></div><br/><br/><br/><br/><br/><br/><br/><br/><br/><br/><br/><p>Each option results in winning points or receiving 0 points.</br>There is a 50% chance of either winning or receiving 0 points.</p><p>You won't receive the outcome until after a <b> 20 second delay</b>.</p>","0","html-button-response","2","9852","0.0-2.0-0.0","female","18","Australia","28802","24626","neither","neither","imgNWTK/square.png","imgNWTK/triangle.png","noninfo","eq","3.31","","","","","","","","","","","","","",""
"12744","<img src= 'imgNWTK/NonInfoDiagram.png'></img><p>As seen above, whether you choose the square or triangle, you will receive a coloured circle after the choice. </p> <p>This circle will be on screen for 20 seconds until you win points or receive 0 points.</p><p>The coloured circle depends on which option you chose. </br> In the above example, choosing a triangle leads to a green circle and choosing the square leads to a red circle.</p>Please note: the circles in your task will be different to the above colours.</br></br>","0","html-button-response","3","22598","0.0-2.0-1.0","female","18","Australia","28802","24626","neither","neither","imgNWTK/square.png","imgNWTK/triangle.png","noninfo","eq","3.31","","","","","","","","","","","","","",""
"3703","<img src= 'cues/winTrials_noInfo.png' width = '1200'></img><p>To reiterate, 50% of the outcomes of each option will be WIN TRIALS, and the other 50% will be NO-WIN TRIALS.","0","html-button-response","4","26303","0.0-2.0-2.0","female","18","Australia","28802","24626","neither","neither","imgNWTK/square.png","imgNWTK/triangle.png","noninfo","eq","3.31","","","","","","","","","","","","","",""
"13229","<p> There will be <b>four blocks</b> in the experiment.</br>You will be given a short 15 second break between each block.</p><p><b>The points and the options will remain the same between the blocks.</b></p>The blocks are there just to give you a small break.</br></br></br></br><p>The points you earn in the task are also equal to <b> actual money</b>.</br> <b>1000 points is equal to $1 AUD</b></p><p>This is the rate you will be paid at the experiment's end.","0","html-button-response","5","39535","0.0-2.0-3.0","female","18","Australia","28802","24626","neither","neither","imgNWTK/square.png","imgNWTK/triangle.png","noninfo","eq","3.31","","","","","","","","","","","","","",""
"6096","","","survey-multi-choice","6","45635","0.0-2.0-4.0","female","18","Australia","28802","24626","neither","neither","imgNWTK/square.png","imgNWTK/triangle.png","noninfo","eq","3.31","{""Q0"":""20 Seconds"",""Q1"":""True"",""Q2"":""Equally""}","","","","","","","","","","","","",""
"1878","<p> Well done, all your answers were correct! <br> The experiment is about to start now. <br/> Click start to continue, or email your researcher <b>(amy.x.li@unsw.edu.au)</b> if you have any questions before starting.","0","html-button-response","7","47519","0.0-3.0","female","18","Australia","28802","24626","neither","neither","imgNWTK/square.png","imgNWTK/triangle.png","noninfo","eq","3.31","","","","","","","","","","","","","",""
"1485","","","bandit-task-exp6","8","71159","0.0-4.0-0.0","female","18","Australia","28802","24626","neither","neither","imgNWTK/square.png","imgNWTK/triangle.png","noninfo","eq","3.31","","1","2","2","90","null","imgNWTK/square.png","imgNWTK/triangle.png","imgNWTK/triangle.png","NaN","NaN","","",""
"1751","","","bandit-task-exp6","9","95294","0.0-4.0-0.1","female","18","Australia","28802","24626","neither","neither","imgNWTK/square.png","imgNWTK/triangle.png","noninfo","eq","3.31","","2","2","1","0","null","imgNWTK/square.png","imgNWTK/triangle.png","imgNWTK/triangle.png","NaN","NaN","","",""
"1042","","","bandit-task-exp6","10","118453","0.0-4.0-0.2","female","18","Australia","28802","24626","neither","neither","imgNWTK/square.png","imgNWTK/triangle.png","noninfo","eq","3.31","","3","2","2","97","null","imgNWTK/triangle.png","imgNWTK/square.png","imgNWTK/triangle.png","NaN","NaN","","",""
"2479","","","bandit-task-exp6","11","142984","0.0-4.0-0.3","female","18","Australia","28802","24626","neither","neither","imgNWTK/square.png","imgNWTK/triangle.png","noninfo","eq","3.31","","4","1","1","108","null","imgNWTK/square.png","imgNWTK/triangle.png","imgNWTK/square.png","NaN","NaN","","",""
"1825","","","bandit-task-exp6","12","167525","0.0-4.0-0.4","female","18","Australia","28802","24626","neither","neither","imgNWTK/square.png","imgNWTK/triangle.png","noninfo","eq","3.31","","5","1","2","0","null","imgNWTK/square.png","imgNWTK/triangle.png","imgNWTK/square.png","NaN","NaN","","",""
"1726","","","bandit-task-exp6","13","193756","0.0-4.0-0.5","female","18","Australia","28802","24626","neither","neither","imgNWTK/square.png","imgNWTK/triangle.png","noninfo","eq","3.31","","6","1","2","0","null","imgNWTK/square.png","imgNWTK/triangle.png","imgNWTK/square.png","NaN","NaN","","",""
"1041","","","bandit-task-exp6","14","219074","0.0-4.0-0.6","female","18","Australia","28802","24626","neither","neither","imgNWTK/square.png","imgNWTK/triangle.png","noninfo","eq","3.31","","7","2","2","105","null","imgNWTK/square.png","imgNWTK/triangle.png","imgNWTK/triangle.png","NaN","NaN","","",""
"1336","","","bandit-task-exp6","15","242291","0.0-4.0-0.7","female","18","Australia","28802","24626","neither","neither","imgNWTK/square.png","imgNWTK/triangle.png","noninfo","eq","3.31","","8","2","2","102","null","imgNWTK/triangle.png","imgNWTK/square.png","imgNWTK/triangle.png","NaN","NaN","","",""
"790","","","bandit-task-exp6","16","265056","0.0-4.0-0.8","female","18","Australia","28802","24626","neither","neither","imgNWTK/square.png","imgNWTK/triangle.png","noninfo","eq","3.31","","9","2","1","0","null","imgNWTK/triangle.png","imgNWTK/square.png","imgNWTK/triangle.png","NaN","NaN","","",""
"774","","","bandit-task-exp6","17","287587","0.0-4.0-0.9","female","18","Australia","28802","24626","neither","neither","imgNWTK/square.png","imgNWTK/triangle.png","noninfo","eq","3.31","","10","2","1","0","null","imgNWTK/square.png","imgNWTK/triangle.png","imgNWTK/triangle.png","NaN","NaN","","",""
"617","","","bandit-task-exp6","18","310564","0.0-4.0-0.10","female","18","Australia","28802","24626","neither","neither","imgNWTK/square.png","imgNWTK/triangle.png","noninfo","eq","3.31","","11","2","2","93","null","imgNWTK/square.png","imgNWTK/triangle.png","imgNWTK/triangle.png","NaN","NaN","","",""
"2571","","","bandit-task-exp6","19","334976","0.0-4.0-0.11","female","18","Australia","28802","24626","neither","neither","imgNWTK/square.png","imgNWTK/triangle.png","noninfo","eq","3.31","","12","2","1","0","null","imgNWTK/square.png","imgNWTK/triangle.png","imgNWTK/triangle.png","NaN","NaN","","",""
"5669","","","bandit-task-exp6","20","365689","0.0-4.0-0.12","female","18","Australia","28802","24626","neither","neither","imgNWTK/square.png","imgNWTK/triangle.png","noninfo","eq","3.31","","13","1","2","0","null","imgNWTK/square.png","imgNWTK/triangle.png","imgNWTK/square.png","NaN","NaN","","",""
"1139","","","bandit-task-exp6","21","388420","0.0-4.0-0.13","female","18","Australia","28802","24626","neither","neither","imgNWTK/square.png","imgNWTK/triangle.png","noninfo","eq","3.31","","14","1","2","0","null","imgNWTK/triangle.png","imgNWTK/square.png","imgNWTK/square.png","NaN","NaN","","",""
"1108","","","bandit-task-exp6","22","412060","0.0-4.0-0.14","female","18","Australia","28802","24626","neither","neither","imgNWTK/square.png","imgNWTK/triangle.png","noninfo","eq","3.31","","15","1","1","106","null","imgNWTK/triangle.png","imgNWTK/square.png","imgNWTK/square.png","NaN","NaN","","",""
"null","<p><b> Congratulations, you have finished this block. </b> </p><p>Please take a short break before moving onto the next block.</p><p>The next block will start after a 15 second break.</p><b>Remember, the point rewards are the same between blocks","","html-keyboard-response","23","427063","0.0-5.0","female","18","Australia","28802","24626","neither","neither","imgNWTK/square.png","imgNWTK/triangle.png","noninfo","eq","3.31","","","","","","","","","","","","null","",""
"2316","","","bandit-task-exp6","24","451971","0.0-6.0-0.0","female","18","Australia","28802","24626","neither","neither","imgNWTK/square.png","imgNWTK/triangle.png","noninfo","eq","3.31","","16","2","2","108","null","imgNWTK/square.png","imgNWTK/triangle.png","imgNWTK/triangle.png","NaN","NaN","","",""
"747","","","bandit-task-exp6","25","476714","0.0-6.0-0.1","female","18","Australia","28802","24626","neither","neither","imgNWTK/square.png","imgNWTK/triangle.png","noninfo","eq","3.31","","17","2","2","90","null","imgNWTK/triangle.png","imgNWTK/square.png","imgNWTK/triangle.png","NaN","NaN","","",""
"1170","","","bandit-task-exp6","26","500550","0.0-6.0-0.2","female","18","Australia","28802","24626","neither","neither","imgNWTK/square.png","imgNWTK/triangle.png","noninfo","eq","3.31","","18","1","2","0","null","imgNWTK/triangle.png","imgNWTK/square.png","imgNWTK/square.png","NaN","NaN","","",""
"1146","","","bandit-task-exp6","27","537287","0.0-6.0-0.3","female","18","Australia","28802","24626","neither","neither","imgNWTK/square.png","imgNWTK/triangle.png","noninfo","eq","3.31","","19","1","1","106","null","imgNWTK/square.png","imgNWTK/triangle.png","imgNWTK/square.png","NaN","NaN","","",""
"1193","","","bandit-task-exp6","28","563120","0.0-6.0-0.4","female","18","Australia","28802","24626","neither","neither","imgNWTK/square.png","imgNWTK/triangle.png","noninfo","eq","3.31","","20","1","1","96","null","imgNWTK/square.png","imgNWTK/triangle.png","imgNWTK/square.png","NaN","NaN","","",""
"1083","","","bandit-task-exp6","29","586030","0.0-6.0-0.5","female","18","Australia","28802","24626","neither","neither","imgNWTK/square.png","imgNWTK/triangle.png","noninfo","eq","3.31","","21","2","1","0","null","imgNWTK/square.png","imgNWTK/triangle.png","imgNWTK/triangle.png","NaN","NaN","","",""
"2371","","","bandit-task-exp6","30","610112","0.0-6.0-0.6","female","18","Australia","28802","24626","neither","neither","imgNWTK/square.png","imgNWTK/triangle.png","noninfo","eq","3.31","","22","2","2","96","null","imgNWTK/square.png","imgNWTK/triangle.png","imgNWTK/triangle.png","NaN","NaN","","",""
"886","","","bandit-task-exp6","31","632736","0.0-6.0-0.7","female","18","Australia","28802","24626","neither","neither","imgNWTK/square.png","imgNWTK/triangle.png","noninfo","eq","3.31","","23","2","1","0","null","imgNWTK/square.png","imgNWTK/triangle.png","imgNWTK/triangle.png","NaN","NaN","","",""
"1277","","","bandit-task-exp6","32","657293","0.0-6.0-0.8","female","18","Australia","28802","24626","neither","neither","imgNWTK/square.png","imgNWTK/triangle.png","noninfo","eq","3.31","","24","1","1","97","null","imgNWTK/triangle.png","imgNWTK/square.png","imgNWTK/square.png","NaN","NaN","","",""
"963","","","bandit-task-exp6","33","681258","0.0-6.0-0.9","female","18","Australia","28802","24626","neither","neither","imgNWTK/square.png","imgNWTK/triangle.png","noninfo","eq","3.31","","25","2","2","98","null","imgNWTK/triangle.png","imgNWTK/square.png","imgNWTK/triangle.png","NaN","NaN","","",""
"1228","","","bandit-task-exp6","34","705399","0.0-6.0-0.10","female","18","Australia","28802","24626","neither","neither","imgNWTK/square.png","imgNWTK/triangle.png","noninfo","eq","3.31","","26","1","1","95","null","imgNWTK/square.png","imgNWTK/triangle.png","imgNWTK/square.png","NaN","NaN","","",""
"4390","","","bandit-task-exp6","35","731626","0.0-6.0-0.11","female","18","Australia","28802","24626","neither","neither","imgNWTK/square.png","imgNWTK/triangle.png","noninfo","eq","3.31","","27","2","2","109","null","imgNWTK/square.png","imgNWTK/triangle.png","imgNWTK/triangle.png","NaN","NaN","","",""
"825","","","bandit-task-exp6","36","754193","0.0-6.0-0.12","female","18","Australia","28802","24626","neither","neither","imgNWTK/square.png","imgNWTK/triangle.png","noninfo","eq","3.31","","28","2","2","110","null","imgNWTK/square.png","imgNWTK/triangle.png","imgNWTK/triangle.png","NaN","NaN","","",""
"812","","","bandit-task-exp6","37","777083","0.0-6.0-0.13","female","18","Australia","28802","24626","neither","neither","imgNWTK/square.png","imgNWTK/triangle.png","noninfo","eq","3.31","","29","2","2","104","null","imgNWTK/triangle.png","imgNWTK/square.png","imgNWTK/triangle.png","NaN","NaN","","",""
"934","","","bandit-task-exp6","38","800124","0.0-6.0-0.14","female","18","Australia","28802","24626","neither","neither","imgNWTK/square.png","imgNWTK/triangle.png","noninfo","eq","3.31","","30","2","1","0","null","imgNWTK/triangle.png","imgNWTK/square.png","imgNWTK/triangle.png","NaN","NaN","","",""
"null","<p><b> Congratulations, you have finished this block. </b> </p><p>Please take a short break before moving onto the next block.</p><p>The next block will start after a 15 second break.</p><b>Remember, the point rewards are the same between blocks","","html-keyboard-response","39","815129","0.0-7.0","female","18","Australia","28802","24626","neither","neither","imgNWTK/square.png","imgNWTK/triangle.png","noninfo","eq","3.31","","","","","","","","","","","","null","",""
"1027","","","bandit-task-exp6","40","839094","0.0-8.0-0.0","female","18","Australia","28802","24626","neither","neither","imgNWTK/square.png","imgNWTK/triangle.png","noninfo","eq","3.31","","31","2","2","110","null","imgNWTK/square.png","imgNWTK/triangle.png","imgNWTK/triangle.png","NaN","NaN","","",""
"797","","","bandit-task-exp6","41","865737","0.0-8.0-0.1","female","18","Australia","28802","24626","neither","neither","imgNWTK/square.png","imgNWTK/triangle.png","noninfo","eq","3.31","","32","2","1","0","null","imgNWTK/triangle.png","imgNWTK/square.png","imgNWTK/triangle.png","NaN","NaN","","",""
"1315","","","bandit-task-exp6","42","889337","0.0-8.0-0.2","female","18","Australia","28802","24626","neither","neither","imgNWTK/square.png","imgNWTK/triangle.png","noninfo","eq","3.31","","33","1","2","0","null","imgNWTK/square.png","imgNWTK/triangle.png","imgNWTK/square.png","NaN","NaN","","",""
"1292","","","bandit-task-exp6","43","912524","0.0-8.0-0.3","female","18","Australia","28802","24626","neither","neither","imgNWTK/square.png","imgNWTK/triangle.png","noninfo","eq","3.31","","34","2","1","0","null","imgNWTK/square.png","imgNWTK/triangle.png","imgNWTK/triangle.png","NaN","NaN","","",""
"782","","","bandit-task-exp6","44","934965","0.0-8.0-0.4","female","18","Australia","28802","24626","neither","neither","imgNWTK/square.png","imgNWTK/triangle.png","noninfo","eq","3.31","","35","1","1","96","null","imgNWTK/triangle.png","imgNWTK/square.png","imgNWTK/square.png","NaN","NaN","","",""
"1962","","","bandit-task-exp6","45","959132","0.0-8.0-0.5","female","18","Australia","28802","24626","neither","neither","imgNWTK/square.png","imgNWTK/triangle.png","noninfo","eq","3.31","","36","1","1","101","null","imgNWTK/triangle.png","imgNWTK/square.png","imgNWTK/square.png","NaN","NaN","","",""
"787","","","bandit-task-exp6","46","981650","0.0-8.0-0.6","female","18","Australia","28802","24626","neither","neither","imgNWTK/square.png","imgNWTK/triangle.png","noninfo","eq","3.31","","37","2","2","105","null","imgNWTK/square.png","imgNWTK/triangle.png","imgNWTK/triangle.png","NaN","NaN","","",""
"1050","","","bandit-task-exp6","47","1004677","0.0-8.0-0.7","female","18","Australia","28802","24626","neither","neither","imgNWTK/square.png","imgNWTK/triangle.png","noninfo","eq","3.31","","38","1","1","105","null","imgNWTK/square.png","imgNWTK/triangle.png","imgNWTK/square.png","NaN","NaN","","",""
"1473","","","bandit-task-exp6","48","1027686","0.0-8.0-0.8","female","18","Australia","28802","24626","neither","neither","imgNWTK/square.png","imgNWTK/triangle.png","noninfo","eq","3.31","","39","2","2","110","null","imgNWTK/triangle.png","imgNWTK/square.png","imgNWTK/triangle.png","NaN","NaN","","",""
"787","","","bandit-task-exp6","49","1050722","0.0-8.0-0.9","female","18","Australia","28802","24626","neither","neither","imgNWTK/square.png","imgNWTK/triangle.png","noninfo","eq","3.31","","40","1","1","95","null","imgNWTK/triangle.png","imgNWTK/square.png","imgNWTK/square.png","NaN","NaN","","",""
"838","","","bandit-task-exp6","50","1073024","0.0-8.0-0.10","female","18","Australia","28802","24626","neither","neither","imgNWTK/square.png","imgNWTK/triangle.png","noninfo","eq","3.31","","41","1","2","0","null","imgNWTK/triangle.png","imgNWTK/square.png","imgNWTK/square.png","NaN","NaN","","",""
"943","","","bandit-task-exp6","51","1095360","0.0-8.0-0.11","female","18","Australia","28802","24626","neither","neither","imgNWTK/square.png","imgNWTK/triangle.png","noninfo","eq","3.31","","42","2","2","95","null","imgNWTK/triangle.png","imgNWTK/square.png","imgNWTK/triangle.png","NaN","NaN","","",""
"876","","","bandit-task-exp6","52","1124376","0.0-8.0-0.12","female","18","Australia","28802","24626","neither","neither","imgNWTK/square.png","imgNWTK/triangle.png","noninfo","eq","3.31","","43","1","1","90","null","imgNWTK/triangle.png","imgNWTK/square.png","imgNWTK/square.png","NaN","NaN","","",""
"1008","","","bandit-task-exp6","53","1147963","0.0-8.0-0.13","female","18","Australia","28802","24626","neither","neither","imgNWTK/square.png","imgNWTK/triangle.png","noninfo","eq","3.31","","44","2","2","98","null","imgNWTK/square.png","imgNWTK/triangle.png","imgNWTK/triangle.png","NaN","NaN","","",""
"1013","","","bandit-task-exp6","54","1171834","0.0-8.0-0.14","female","18","Australia","28802","24626","neither","neither","imgNWTK/square.png","imgNWTK/triangle.png","noninfo","eq","3.31","","45","1","1","90","null","imgNWTK/square.png","imgNWTK/triangle.png","imgNWTK/square.png","NaN","NaN","","",""
"null","<p><b> Congratulations, you have finished this block. </b> </p><p>Please take a short break before moving onto the next block.</p><p>The next block will start after a 15 second break.</p><b>Remember, the point rewards are the same between blocks","","html-keyboard-response","55","1186837","0.0-9.0","female","18","Australia","28802","24626","neither","neither","imgNWTK/square.png","imgNWTK/triangle.png","noninfo","eq","3.31","","","","","","","","","","","","null","",""
"17781","","","bandit-task-exp6","56","1234018","0.0-10.0-0.0","female","18","Australia","28802","24626","neither","neither","imgNWTK/square.png","imgNWTK/triangle.png","noninfo","eq","3.31","","46","2","1","0","null","imgNWTK/square.png","imgNWTK/triangle.png","imgNWTK/triangle.png","102","96","","",""
"9236","","","bandit-task-exp6","57","1265266","0.0-10.0-0.1","female","18","Australia","28802","24626","neither","neither","imgNWTK/square.png","imgNWTK/triangle.png","noninfo","eq","3.31","","47","1","1","92","null","imgNWTK/square.png","imgNWTK/triangle.png","imgNWTK/square.png","102","96","","",""
"10067","","","bandit-task-exp6","58","1303355","0.0-10.0-0.2","female","18","Australia","28802","24626","neither","neither","imgNWTK/square.png","imgNWTK/triangle.png","noninfo","eq","3.31","","48","1","1","101","null","imgNWTK/triangle.png","imgNWTK/square.png","imgNWTK/square.png","90","96","","",""
"6955","","","bandit-task-exp6","59","1332367","0.0-10.0-0.3","female","18","Australia","28802","24626","neither","neither","imgNWTK/square.png","imgNWTK/triangle.png","noninfo","eq","3.31","","49","1","1","105","null","imgNWTK/triangle.png","imgNWTK/square.png","imgNWTK/square.png","90","100","","",""
"4434","","","bandit-task-exp6","60","1359002","0.0-10.0-0.4","female","18","Australia","28802","24626","neither","neither","imgNWTK/square.png","imgNWTK/triangle.png","noninfo","eq","3.31","","50","1","2","0","null","imgNWTK/triangle.png","imgNWTK/square.png","imgNWTK/square.png","90","104","","",""
"5857","","","bandit-task-exp6","61","1391725","0.0-10.0-0.5","female","18","Australia","28802","24626","neither","neither","imgNWTK/square.png","imgNWTK/triangle.png","noninfo","eq","3.31","","51","2","1","0","null","imgNWTK/triangle.png","imgNWTK/square.png","imgNWTK/triangle.png","94","100","","",""
"3370","","","bandit-task-exp6","62","1420752","0.0-10.0-0.6","female","18","Australia","28802","24626","neither","neither","imgNWTK/square.png","imgNWTK/triangle.png","noninfo","eq","3.31","","52","1","2","0","null","imgNWTK/triangle.png","imgNWTK/square.png","imgNWTK/square.png","90","100","","",""
"3762","","","bandit-task-exp6","63","1460028","0.0-10.0-0.7","female","18","Australia","28802","24626","neither","neither","imgNWTK/square.png","imgNWTK/triangle.png","noninfo","eq","3.31","","53","1","2","0","null","imgNWTK/square.png","imgNWTK/triangle.png","imgNWTK/square.png","90","100","","",""
"4253","","","bandit-task-exp6","64","1487258","0.0-10.0-0.8","female","18","Australia","28802","24626","neither","neither","imgNWTK/square.png","imgNWTK/triangle.png","noninfo","eq","3.31","","54","2","1","0","null","imgNWTK/triangle.png","imgNWTK/square.png","imgNWTK/triangle.png","95","100","","",""
"28634","","","bandit-task-exp6","65","1539535","0.0-10.0-0.9","female","18","Australia","28802","24626","neither","neither","imgNWTK/square.png","imgNWTK/triangle.png","noninfo","eq","3.31","","55","1","2","0","null","imgNWTK/square.png","imgNWTK/triangle.png","imgNWTK/square.png","104","96","","",""
"4573","","","bandit-task-exp6","66","1565872","0.0-10.0-0.10","female","18","Australia","28802","24626","neither","neither","imgNWTK/square.png","imgNWTK/triangle.png","noninfo","eq","3.31","","56","2","1","0","null","imgNWTK/triangle.png","imgNWTK/square.png","imgNWTK/triangle.png","90","93","","",""
"15661","","","bandit-task-exp6","67","1606911","0.0-10.0-0.11","female","18","Australia","28802","24626","neither","neither","imgNWTK/square.png","imgNWTK/triangle.png","noninfo","eq","3.31","","57","1","2","0","null","imgNWTK/triangle.png","imgNWTK/square.png","imgNWTK/square.png","100","102","","",""
"5517","","","bandit-task-exp6","68","1635581","0.0-10.0-0.12","female","18","Australia","28802","24626","neither","neither","imgNWTK/square.png","imgNWTK/triangle.png","noninfo","eq","3.31","","58","2","2","108","null","imgNWTK/triangle.png","imgNWTK/square.png","imgNWTK/triangle.png","94","90","","",""
"4204","","","bandit-task-exp6","69","1665609","0.0-10.0-0.13","female","18","Australia","28802","24626","neither","neither","imgNWTK/square.png","imgNWTK/triangle.png","noninfo","eq","3.31","","59","2","1","0","null","imgNWTK/triangle.png","imgNWTK/square.png","imgNWTK/triangle.png","94","91","","",""
"11343","","","bandit-task-exp6","70","1699073","0.0-10.0-0.14","female","18","Australia","28802","24626","neither","neither","imgNWTK/square.png","imgNWTK/triangle.png","noninfo","eq","3.31","","60","1","2","0","null","imgNWTK/triangle.png","imgNWTK/square.png","imgNWTK/square.png","96","98","","",""
"1791","<p> Congratulations, you have finished the main part of the experiment. </p><p>Before you finish, we have a few short questions about the options and outcomes you saw in the task.</p>","0","html-button-response","71","1700867","0.0-11.0","female","18","Australia","28802","24626","neither","neither","imgNWTK/square.png","imgNWTK/triangle.png","noninfo","eq","3.31","","","","","","","","","","","","","",""
"2974","<p><b>Now, imagine that you clicked on the below button for another 10 trials (this includes <i> BOTH WIN and NO-WIN trials</i>).</p> <img src= 'imgNWTK/square.png'></img></br></br> <p><b>Please type the reward (number of points) you would expect to receive on every trial.</br> Click start to begin.</p>","0","html-button-response","72","1703844","0.0-12.0","female","18","Australia","28802","24626","neither","neither","imgNWTK/square.png","imgNWTK/triangle.png","noninfo","eq","3.31","","","","","","","","","","","","","",""
"4968.89999999851","","","survey-number","73","1708819","0.0-13.0-0.0","female","18","Australia","28802","24626","neither","neither","imgNWTK/square.png","imgNWTK/triangle.png","noninfo","eq","3.31","{""undefined"":""96""}","","","","","","","","","","","","imgNWTK/square.png",""
"8506.300000000745","","","survey-number","74","1717331","0.0-13.0-0.1","female","18","Australia","28802","24626","neither","neither","imgNWTK/square.png","imgNWTK/triangle.png","noninfo","eq","3.31","{""undefined"":""102""}","","","","","","","","","","","","imgNWTK/square.png",""
"3465.699999999255","","","survey-number","75","1720802","0.0-13.0-0.2","female","18","Australia","28802","24626","neither","neither","imgNWTK/square.png","imgNWTK/triangle.png","noninfo","eq","3.31","{""undefined"":""105""}","","","","","","","","","","","","imgNWTK/square.png",""
"1367.1000000014901","","","survey-number","76","1722173","0.0-13.0-0.3","female","18","Australia","28802","24626","neither","neither","imgNWTK/square.png","imgNWTK/triangle.png","noninfo","eq","3.31","{""undefined"":""92""}","","","","","","","","","","","","imgNWTK/square.png",""
"4885.60000000149","","","survey-number","77","1727064","0.0-13.0-0.4","female","18","Australia","28802","24626","neither","neither","imgNWTK/square.png","imgNWTK/triangle.png","noninfo","eq","3.31","{""undefined"":""94""}","","","","","","","","","","","","imgNWTK/square.png",""
"2336","","","survey-number","78","1729405","0.0-13.0-0.5","female","18","Australia","28802","24626","neither","neither","imgNWTK/square.png","imgNWTK/triangle.png","noninfo","eq","3.31","{""undefined"":""106""}","","","","","","","","","","","","imgNWTK/square.png",""
"3488.60000000149","","","survey-number","79","1732898","0.0-13.0-0.6","female","18","Australia","28802","24626","neither","neither","imgNWTK/square.png","imgNWTK/triangle.png","noninfo","eq","3.31","{""undefined"":""94""}","","","","","","","","","","","","imgNWTK/square.png",""
"1445.5","","","survey-number","80","1734348","0.0-13.0-0.7","female","18","Australia","28802","24626","neither","neither","imgNWTK/square.png","imgNWTK/triangle.png","noninfo","eq","3.31","{""undefined"":""96""}","","","","","","","","","","","","imgNWTK/square.png",""
"1956.199999999255","","","survey-number","81","1736308","0.0-13.0-0.8","female","18","Australia","28802","24626","neither","neither","imgNWTK/square.png","imgNWTK/triangle.png","noninfo","eq","3.31","{""undefined"":""102""}","","","","","","","","","","","","imgNWTK/square.png",""
"1348.3999999985099","","","survey-number","82","1737661","0.0-13.0-0.9","female","18","Australia","28802","24626","neither","neither","imgNWTK/square.png","imgNWTK/triangle.png","noninfo","eq","3.31","{""undefined"":""103""}","","","","","","","","","","","","imgNWTK/square.png",""
"4715","<p><b>Imagine that you clicked on the below button for another 10 trials (this includes <i> both WIN and NO-WIN trials</i>).</p> <img src= 'imgNWTK/triangle.png'></img></br></br> <p><b>Please type the reward (number of points) you would expect to receive on every trial.</br> Click start to begin.</p>","0","html-button-response","83","1742378","0.0-14.0","female","18","Australia","28802","24626","neither","neither","imgNWTK/square.png","imgNWTK/triangle.png","noninfo","eq","3.31","","","","","","","","","","","","","",""
"5760.599999997765","","","survey-number","84","1748144","0.0-15.0-0.0","female","18","Australia","28802","24626","neither","neither","imgNWTK/square.png","imgNWTK/triangle.png","noninfo","eq","3.31","{""undefined"":""0""}","","","","","","","","","","","","imgNWTK/triangle.png",""
"1455.800000000745","","","survey-number","85","1749605","0.0-15.0-0.1","female","18","Australia","28802","24626","neither","neither","imgNWTK/square.png","imgNWTK/triangle.png","noninfo","eq","3.31","{""undefined"":""96""}","","","","","","","","","","","","imgNWTK/triangle.png",""
"1031.2999999970198","","","survey-number","86","1750641","0.0-15.0-0.2","female","18","Australia","28802","24626","neither","neither","imgNWTK/square.png","imgNWTK/triangle.png","noninfo","eq","3.31","{""undefined"":""92""}","","","","","","","","","","","","imgNWTK/triangle.png",""
"1104.5","","","survey-number","87","1751751","0.0-15.0-0.3","female","18","Australia","28802","24626","neither","neither","imgNWTK/square.png","imgNWTK/triangle.png","noninfo","eq","3.31","{""undefined"":""0""}","","","","","","","","","","","","imgNWTK/triangle.png",""
"3519.599999997765","","","survey-number","88","1755275","0.0-15.0-0.4","female","18","Australia","28802","24626","neither","neither","imgNWTK/square.png","imgNWTK/triangle.png","noninfo","eq","3.31","{""undefined"":""90""}","","","","","","","","","","","","imgNWTK/triangle.png",""
"1196.4000000022352","","","survey-number","89","1756476","0.0-15.0-0.5","female","18","Australia","28802","24626","neither","neither","imgNWTK/square.png","imgNWTK/triangle.png","noninfo","eq","3.31","{""undefined"":""103""}","","","","","","","","","","","","imgNWTK/triangle.png",""
"2155.60000000149","","","survey-number","90","1758636","0.0-15.0-0.6","female","18","Australia","28802","24626","neither","neither","imgNWTK/square.png","imgNWTK/triangle.png","noninfo","eq","3.31","{""undefined"":""93""}","","","","","","","","","","","","imgNWTK/triangle.png",""
"1595","","","survey-number","91","1760234","0.0-15.0-0.7","female","18","Australia","28802","24626","neither","neither","imgNWTK/square.png","imgNWTK/triangle.png","noninfo","eq","3.31","{""undefined"":""0""}","","","","","","","","","","","","imgNWTK/triangle.png",""
"1222.5999999977648","","","survey-number","92","1761460","0.0-15.0-0.8","female","18","Australia","28802","24626","neither","neither","imgNWTK/square.png","imgNWTK/triangle.png","noninfo","eq","3.31","{""undefined"":""92""}","","","","","","","","","","","","imgNWTK/triangle.png",""
"989","","","survey-number","93","1762453","0.0-15.0-0.9","female","18","Australia","28802","24626","neither","neither","imgNWTK/square.png","imgNWTK/triangle.png","noninfo","eq","3.31","{""undefined"":""0""}","","","","","","","","","","","","imgNWTK/triangle.png",""
"19283.199999999255","","","survey-number","94","1781742","0.0-16.0","female","18","Australia","28802","24626","neither","neither","imgNWTK/square.png","imgNWTK/triangle.png","noninfo","eq","3.31","{""undefined"":""95""}","","","","","","","","","","","","","imgNWTK/triangle.png"
"2842.60000000149","","","survey-number","95","1784591","0.0-17.0","female","18","Australia","28802","24626","neither","neither","imgNWTK/square.png","imgNWTK/triangle.png","noninfo","eq","3.31","{""undefined"":""98""}","","","","","","","","","","","","","imgNWTK/square.png"
"17035","<p style=""text-align:left;"">Great! We are almost at the end of the study... (Please do not close the browser window yet.)</p><p> Your final points balance is 3311, which equals to a bonus payment of $3.31. Please collect your payment from Mathews Building Room 721 (Wed-Fri 9am-5pm); please email jaimie.lee@unsw.edu.au at least 24 hours prior to collection so that this is ready for you.</p><p style=""text-align:left;"">To view the debriefing form, please click <a href=""./imgNWTK/debrief_3205.pdf"" target=""_blank"">here</a> to download a copy.</p><p style=""text-align:left;"">Then, <b>please click the below button</b> to confirm that you have received your debrief and to complete the study. Upon clicking ""Finish!"", your SONA credit will be automatically assigned.</p>","0","html-button-response","96","1801628","0.0-18.0","female","18","Australia","28802","24626","neither","neither","imgNWTK/square.png","imgNWTK/triangle.png","noninfo","eq","3.31","","","","","","","","","","","","","",""
