"rt","stimulus","button_pressed","trial_type","trial_index","time_elapsed","internal_node_id","gender","age","language","PID","sona_id","subStim","optStim","stim1","stim2","infoCond","optimCond","bonus","responses","banditTrial","choice","cue","feedback","estimateData","leftOption","rightOption","choiceName","leftInput","rightInput","key_press","postQ","singleEst"
"11777","<p>Thank you for signing up to participate in SONA Study 465! <br> During this study, please focus on the experiment and refrain from activities such as:</p>- <b>Switching to other tabs on your browser (this will be monitored via the experiment)</br> - Using your mobile phone/cell phone</br> - Communicating with others</br></br></b><p>This way, you are helping to provide data that is useful for psychological research. We thank you for your cooperation!</p>","0","html-button-response","0","11781","0.0-0.0","female","19","Australia","73593","24727","imgNWTK/square.png","imgNWTK/triangle.png","imgNWTK/square.png","imgNWTK/triangle.png","noninfo","optim","3.88","","","","","","","","","","","","","",""
"1427","<p>Welcome to the experiment!</p><p>You will now read some instructions about the task. Press the 'Next' button to continue. </p>","0","html-button-response","1","13211","0.0-1.0","female","19","Australia","73593","24727","imgNWTK/square.png","imgNWTK/triangle.png","imgNWTK/square.png","imgNWTK/triangle.png","noninfo","optim","3.88","","","","","","","","","","","","","",""
"16916","<p> On each trial throughout the experiment you will choose between two options, </br>a <b>Black Square </b> and <b> Black Triangle </b>, as seen below.</p><div><div style= 'float: left; width: 300px; margin: 10px 10px;'><img src= 'imgNWTK/square.png'></img></div><div style= 'float: right; width: 300px; margin: 10px 10px;'><img src= 'imgNWTK/triangle.png'></img></div></div><br/><br/><br/><br/><br/><br/><br/><br/><br/><br/><br/><p>Each option results in winning points or receiving 0 points.</br>There is a 50% chance of either winning or receiving 0 points.</p><p>You won't receive the outcome until after a <b> 20 second delay</b>.</p>","0","html-button-response","2","30129","0.0-2.0-0.0","female","19","Australia","73593","24727","imgNWTK/square.png","imgNWTK/triangle.png","imgNWTK/square.png","imgNWTK/triangle.png","noninfo","optim","3.88","","","","","","","","","","","","","",""
"39630","<img src= 'imgNWTK/NonInfoDiagram.png'></img><p>As seen above, whether you choose the square or triangle, you will receive a coloured circle after the choice. </p> <p>This circle will be on screen for 20 seconds until you win points or receive 0 points.</p><p>The coloured circle depends on which option you chose. </br> In the above example, choosing a triangle leads to a green circle and choosing the square leads to a red circle.</p>Please note: the circles in your task will be different to the above colours.</br></br>","0","html-button-response","3","69761","0.0-2.0-1.0","female","19","Australia","73593","24727","imgNWTK/square.png","imgNWTK/triangle.png","imgNWTK/square.png","imgNWTK/triangle.png","noninfo","optim","3.88","","","","","","","","","","","","","",""
"12715","<img src= 'cues/winTrials_noInfo.png' width = '1200'></img><p>To reiterate, 50% of the outcomes of each option will be WIN TRIALS, and the other 50% will be NO-WIN TRIALS.","0","html-button-response","4","82478","0.0-2.0-2.0","female","19","Australia","73593","24727","imgNWTK/square.png","imgNWTK/triangle.png","imgNWTK/square.png","imgNWTK/triangle.png","noninfo","optim","3.88","","","","","","","","","","","","","",""
"43116","<p> There will be <b>four blocks</b> in the experiment.</br>You will be given a short 15 second break between each block.</p><p><b>The points and the options will remain the same between the blocks.</b></p>The blocks are there just to give you a small break.</br></br></br></br><p>The points you earn in the task are also equal to <b> actual money</b>.</br> <b>1000 points is equal to $1 AUD</b></p><p>This is the rate you will be paid at the experiment's end.","0","html-button-response","5","125596","0.0-2.0-3.0","female","19","Australia","73593","24727","imgNWTK/square.png","imgNWTK/triangle.png","imgNWTK/square.png","imgNWTK/triangle.png","noninfo","optim","3.88","","","","","","","","","","","","","",""
"15337","","","survey-multi-choice","6","140943","0.0-2.0-4.0","female","19","Australia","73593","24727","imgNWTK/square.png","imgNWTK/triangle.png","imgNWTK/square.png","imgNWTK/triangle.png","noninfo","optim","3.88","{""Q0"":""20 Seconds"",""Q1"":""True"",""Q2"":""Equally""}","","","","","","","","","","","","",""
"41189487","<p> Well done, all your answers were correct! <br> The experiment is about to start now. <br/> Click start to continue, or email your researcher <b>(amy.x.li@unsw.edu.au)</b> if you have any questions before starting.","0","html-button-response","7","41330434","0.0-3.0","female","19","Australia","73593","24727","imgNWTK/square.png","imgNWTK/triangle.png","imgNWTK/square.png","imgNWTK/triangle.png","noninfo","optim","3.88","","","","","","","","","","","","","",""
"6816","","","bandit-task-exp6","8","41341358","0.0-4.0-0.0","female","19","Australia","73593","24727","imgNWTK/square.png","imgNWTK/triangle.png","imgNWTK/square.png","imgNWTK/triangle.png","noninfo","optim","3.88","","1","2","1","0","null","imgNWTK/triangle.png","imgNWTK/square.png","imgNWTK/triangle.png","NaN","NaN","","",""
"1759","","","bandit-task-exp6","9","41347772","0.0-4.0-0.1","female","19","Australia","73593","24727","imgNWTK/square.png","imgNWTK/triangle.png","imgNWTK/square.png","imgNWTK/triangle.png","noninfo","optim","3.88","","2","1","1","80","null","imgNWTK/triangle.png","imgNWTK/square.png","imgNWTK/square.png","NaN","NaN","","",""
"2243","","","bandit-task-exp6","10","41353019","0.0-4.0-0.2","female","19","Australia","73593","24727","imgNWTK/square.png","imgNWTK/triangle.png","imgNWTK/square.png","imgNWTK/triangle.png","noninfo","optim","3.88","","3","1","2","0","null","imgNWTK/square.png","imgNWTK/triangle.png","imgNWTK/square.png","NaN","NaN","","",""
"1494","","","bandit-task-exp6","11","41357866","0.0-4.0-0.3","female","19","Australia","73593","24727","imgNWTK/square.png","imgNWTK/triangle.png","imgNWTK/square.png","imgNWTK/triangle.png","noninfo","optim","3.88","","4","2","1","0","null","imgNWTK/triangle.png","imgNWTK/square.png","imgNWTK/triangle.png","NaN","NaN","","",""
"1434","","","bandit-task-exp6","12","41362250","0.0-4.0-0.4","female","19","Australia","73593","24727","imgNWTK/square.png","imgNWTK/triangle.png","imgNWTK/square.png","imgNWTK/triangle.png","noninfo","optim","3.88","","5","1","1","90","null","imgNWTK/triangle.png","imgNWTK/square.png","imgNWTK/square.png","NaN","NaN","","",""
"1631","","","bandit-task-exp6","13","41366667","0.0-4.0-0.5","female","19","Australia","73593","24727","imgNWTK/square.png","imgNWTK/triangle.png","imgNWTK/square.png","imgNWTK/triangle.png","noninfo","optim","3.88","","6","2","1","0","null","imgNWTK/triangle.png","imgNWTK/square.png","imgNWTK/triangle.png","NaN","NaN","","",""
"1296","","","bandit-task-exp6","14","41370954","0.0-4.0-0.6","female","19","Australia","73593","24727","imgNWTK/square.png","imgNWTK/triangle.png","imgNWTK/square.png","imgNWTK/triangle.png","noninfo","optim","3.88","","7","2","2","114","null","imgNWTK/square.png","imgNWTK/triangle.png","imgNWTK/triangle.png","NaN","NaN","","",""
"1343","","","bandit-task-exp6","15","41375071","0.0-4.0-0.7","female","19","Australia","73593","24727","imgNWTK/square.png","imgNWTK/triangle.png","imgNWTK/square.png","imgNWTK/triangle.png","noninfo","optim","3.88","","8","1","1","70","null","imgNWTK/triangle.png","imgNWTK/square.png","imgNWTK/square.png","NaN","NaN","","",""
"1292","","","bandit-task-exp6","16","41379267","0.0-4.0-0.8","female","19","Australia","73593","24727","imgNWTK/square.png","imgNWTK/triangle.png","imgNWTK/square.png","imgNWTK/triangle.png","noninfo","optim","3.88","","9","2","2","110","null","imgNWTK/square.png","imgNWTK/triangle.png","imgNWTK/triangle.png","NaN","NaN","","",""
"1378","","","bandit-task-exp6","17","41383435","0.0-4.0-0.9","female","19","Australia","73593","24727","imgNWTK/square.png","imgNWTK/triangle.png","imgNWTK/square.png","imgNWTK/triangle.png","noninfo","optim","3.88","","10","1","2","0","null","imgNWTK/triangle.png","imgNWTK/square.png","imgNWTK/square.png","NaN","NaN","","",""
"1295","","","bandit-task-exp6","18","41387537","0.0-4.0-0.10","female","19","Australia","73593","24727","imgNWTK/square.png","imgNWTK/triangle.png","imgNWTK/square.png","imgNWTK/triangle.png","noninfo","optim","3.88","","11","2","1","0","null","imgNWTK/square.png","imgNWTK/triangle.png","imgNWTK/triangle.png","NaN","NaN","","",""
"1260","","","bandit-task-exp6","19","41392018","0.0-4.0-0.11","female","19","Australia","73593","24727","imgNWTK/square.png","imgNWTK/triangle.png","imgNWTK/square.png","imgNWTK/triangle.png","noninfo","optim","3.88","","12","1","1","88","null","imgNWTK/square.png","imgNWTK/triangle.png","imgNWTK/square.png","NaN","NaN","","",""
"1314","","","bandit-task-exp6","20","41396154","0.0-4.0-0.12","female","19","Australia","73593","24727","imgNWTK/square.png","imgNWTK/triangle.png","imgNWTK/square.png","imgNWTK/triangle.png","noninfo","optim","3.88","","13","2","2","121","null","imgNWTK/triangle.png","imgNWTK/square.png","imgNWTK/triangle.png","NaN","NaN","","",""
"1429","","","bandit-task-exp6","21","41400320","0.0-4.0-0.13","female","19","Australia","73593","24727","imgNWTK/square.png","imgNWTK/triangle.png","imgNWTK/square.png","imgNWTK/triangle.png","noninfo","optim","3.88","","14","1","1","89","null","imgNWTK/square.png","imgNWTK/triangle.png","imgNWTK/square.png","NaN","NaN","","",""
"1226","","","bandit-task-exp6","22","41404870","0.0-4.0-0.14","female","19","Australia","73593","24727","imgNWTK/square.png","imgNWTK/triangle.png","imgNWTK/square.png","imgNWTK/triangle.png","noninfo","optim","3.88","","15","1","1","83","null","imgNWTK/square.png","imgNWTK/triangle.png","imgNWTK/square.png","NaN","NaN","","",""
"null","<p><b> Congratulations, you have finished this block. </b> </p><p>Please take a short break before moving onto the next block.</p><p>The next block will start after a 15 second break.</p><b>Remember, the point rewards are the same between blocks","","html-keyboard-response","23","41419873","0.0-5.0","female","19","Australia","73593","24727","imgNWTK/square.png","imgNWTK/triangle.png","imgNWTK/square.png","imgNWTK/triangle.png","noninfo","optim","3.88","","","","","","","","","","","","null","",""
"2575","","","bandit-task-exp6","24","41426101","0.0-6.0-0.0","female","19","Australia","73593","24727","imgNWTK/square.png","imgNWTK/triangle.png","imgNWTK/square.png","imgNWTK/triangle.png","noninfo","optim","3.88","","16","2","2","112","null","imgNWTK/triangle.png","imgNWTK/square.png","imgNWTK/triangle.png","NaN","NaN","","",""
"1148","","","bandit-task-exp6","25","41430436","0.0-6.0-0.1","female","19","Australia","73593","24727","imgNWTK/square.png","imgNWTK/triangle.png","imgNWTK/square.png","imgNWTK/triangle.png","noninfo","optim","3.88","","17","2","2","119","null","imgNWTK/triangle.png","imgNWTK/square.png","imgNWTK/triangle.png","NaN","NaN","","",""
"2045","","","bandit-task-exp6","26","41435685","0.0-6.0-0.2","female","19","Australia","73593","24727","imgNWTK/square.png","imgNWTK/triangle.png","imgNWTK/square.png","imgNWTK/triangle.png","noninfo","optim","3.88","","18","1","1","85","null","imgNWTK/square.png","imgNWTK/triangle.png","imgNWTK/square.png","NaN","NaN","","",""
"1447","","","bandit-task-exp6","27","41440254","0.0-6.0-0.3","female","19","Australia","73593","24727","imgNWTK/square.png","imgNWTK/triangle.png","imgNWTK/square.png","imgNWTK/triangle.png","noninfo","optim","3.88","","19","1","2","0","null","imgNWTK/square.png","imgNWTK/triangle.png","imgNWTK/square.png","NaN","NaN","","",""
"1393","","","bandit-task-exp6","28","41444604","0.0-6.0-0.4","female","19","Australia","73593","24727","imgNWTK/square.png","imgNWTK/triangle.png","imgNWTK/square.png","imgNWTK/triangle.png","noninfo","optim","3.88","","20","2","1","0","null","imgNWTK/square.png","imgNWTK/triangle.png","imgNWTK/triangle.png","NaN","NaN","","",""
"1244","","","bandit-task-exp6","29","41449687","0.0-6.0-0.5","female","19","Australia","73593","24727","imgNWTK/square.png","imgNWTK/triangle.png","imgNWTK/square.png","imgNWTK/triangle.png","noninfo","optim","3.88","","21","1","2","0","null","imgNWTK/square.png","imgNWTK/triangle.png","imgNWTK/square.png","NaN","NaN","","",""
"1177","","","bandit-task-exp6","30","41453818","0.0-6.0-0.6","female","19","Australia","73593","24727","imgNWTK/square.png","imgNWTK/triangle.png","imgNWTK/square.png","imgNWTK/triangle.png","noninfo","optim","3.88","","22","1","1","90","null","imgNWTK/triangle.png","imgNWTK/square.png","imgNWTK/square.png","NaN","NaN","","",""
"1165","","","bandit-task-exp6","31","41457887","0.0-6.0-0.7","female","19","Australia","73593","24727","imgNWTK/square.png","imgNWTK/triangle.png","imgNWTK/square.png","imgNWTK/triangle.png","noninfo","optim","3.88","","23","1","2","0","null","imgNWTK/square.png","imgNWTK/triangle.png","imgNWTK/square.png","NaN","NaN","","",""
"1311","","","bandit-task-exp6","32","41462037","0.0-6.0-0.8","female","19","Australia","73593","24727","imgNWTK/square.png","imgNWTK/triangle.png","imgNWTK/square.png","imgNWTK/triangle.png","noninfo","optim","3.88","","24","2","1","0","null","imgNWTK/square.png","imgNWTK/triangle.png","imgNWTK/triangle.png","NaN","NaN","","",""
"1044","","","bandit-task-exp6","33","41465772","0.0-6.0-0.9","female","19","Australia","73593","24727","imgNWTK/square.png","imgNWTK/triangle.png","imgNWTK/square.png","imgNWTK/triangle.png","noninfo","optim","3.88","","25","2","1","0","null","imgNWTK/triangle.png","imgNWTK/square.png","imgNWTK/triangle.png","NaN","NaN","","",""
"1060","","","bandit-task-exp6","34","41469654","0.0-6.0-0.10","female","19","Australia","73593","24727","imgNWTK/square.png","imgNWTK/triangle.png","imgNWTK/square.png","imgNWTK/triangle.png","noninfo","optim","3.88","","26","1","2","0","null","imgNWTK/square.png","imgNWTK/triangle.png","imgNWTK/square.png","NaN","NaN","","",""
"1244","","","bandit-task-exp6","35","41473987","0.0-6.0-0.11","female","19","Australia","73593","24727","imgNWTK/square.png","imgNWTK/triangle.png","imgNWTK/square.png","imgNWTK/triangle.png","noninfo","optim","3.88","","27","1","1","87","null","imgNWTK/square.png","imgNWTK/triangle.png","imgNWTK/square.png","NaN","NaN","","",""
"1295","","","bandit-task-exp6","36","41478085","0.0-6.0-0.12","female","19","Australia","73593","24727","imgNWTK/square.png","imgNWTK/triangle.png","imgNWTK/square.png","imgNWTK/triangle.png","noninfo","optim","3.88","","28","2","2","124","null","imgNWTK/triangle.png","imgNWTK/square.png","imgNWTK/triangle.png","NaN","NaN","","",""
"1148","","","bandit-task-exp6","37","41482188","0.0-6.0-0.13","female","19","Australia","73593","24727","imgNWTK/square.png","imgNWTK/triangle.png","imgNWTK/square.png","imgNWTK/triangle.png","noninfo","optim","3.88","","29","2","2","118","null","imgNWTK/triangle.png","imgNWTK/square.png","imgNWTK/triangle.png","NaN","NaN","","",""
"1793","","","bandit-task-exp6","38","41486852","0.0-6.0-0.14","female","19","Australia","73593","24727","imgNWTK/square.png","imgNWTK/triangle.png","imgNWTK/square.png","imgNWTK/triangle.png","noninfo","optim","3.88","","30","1","1","70","null","imgNWTK/square.png","imgNWTK/triangle.png","imgNWTK/square.png","NaN","NaN","","",""
"null","<p><b> Congratulations, you have finished this block. </b> </p><p>Please take a short break before moving onto the next block.</p><p>The next block will start after a 15 second break.</p><b>Remember, the point rewards are the same between blocks","","html-keyboard-response","39","41501856","0.0-7.0","female","19","Australia","73593","24727","imgNWTK/square.png","imgNWTK/triangle.png","imgNWTK/square.png","imgNWTK/triangle.png","noninfo","optim","3.88","","","","","","","","","","","","null","",""
"1992","","","bandit-task-exp6","40","41508155","0.0-8.0-0.0","female","19","Australia","73593","24727","imgNWTK/square.png","imgNWTK/triangle.png","imgNWTK/square.png","imgNWTK/triangle.png","noninfo","optim","3.88","","31","1","2","0","null","imgNWTK/square.png","imgNWTK/triangle.png","imgNWTK/square.png","NaN","NaN","","",""
"1061","","","bandit-task-exp6","41","41511855","0.0-8.0-0.1","female","19","Australia","73593","24727","imgNWTK/square.png","imgNWTK/triangle.png","imgNWTK/square.png","imgNWTK/triangle.png","noninfo","optim","3.88","","32","1","2","0","null","imgNWTK/square.png","imgNWTK/triangle.png","imgNWTK/square.png","NaN","NaN","","",""
"1976","","","bandit-task-exp6","42","41516686","0.0-8.0-0.2","female","19","Australia","73593","24727","imgNWTK/square.png","imgNWTK/triangle.png","imgNWTK/square.png","imgNWTK/triangle.png","noninfo","optim","3.88","","33","1","1","70","null","imgNWTK/square.png","imgNWTK/triangle.png","imgNWTK/square.png","NaN","NaN","","",""
"1113","","","bandit-task-exp6","43","41520539","0.0-8.0-0.3","female","19","Australia","73593","24727","imgNWTK/square.png","imgNWTK/triangle.png","imgNWTK/square.png","imgNWTK/triangle.png","noninfo","optim","3.88","","34","1","1","87","null","imgNWTK/square.png","imgNWTK/triangle.png","imgNWTK/square.png","NaN","NaN","","",""
"1311","","","bandit-task-exp6","44","41524572","0.0-8.0-0.4","female","19","Australia","73593","24727","imgNWTK/square.png","imgNWTK/triangle.png","imgNWTK/square.png","imgNWTK/triangle.png","noninfo","optim","3.88","","35","2","2","118","null","imgNWTK/triangle.png","imgNWTK/square.png","imgNWTK/triangle.png","NaN","NaN","","",""
"2463","","","bandit-task-exp6","45","41529853","0.0-8.0-0.5","female","19","Australia","73593","24727","imgNWTK/square.png","imgNWTK/triangle.png","imgNWTK/square.png","imgNWTK/triangle.png","noninfo","optim","3.88","","36","2","2","111","null","imgNWTK/triangle.png","imgNWTK/square.png","imgNWTK/triangle.png","NaN","NaN","","",""
"1029","","","bandit-task-exp6","46","41533588","0.0-8.0-0.6","female","19","Australia","73593","24727","imgNWTK/square.png","imgNWTK/triangle.png","imgNWTK/square.png","imgNWTK/triangle.png","noninfo","optim","3.88","","37","2","2","115","null","imgNWTK/triangle.png","imgNWTK/square.png","imgNWTK/triangle.png","NaN","NaN","","",""
"1162","","","bandit-task-exp6","47","41537405","0.0-8.0-0.7","female","19","Australia","73593","24727","imgNWTK/square.png","imgNWTK/triangle.png","imgNWTK/square.png","imgNWTK/triangle.png","noninfo","optim","3.88","","38","2","2","127","null","imgNWTK/triangle.png","imgNWTK/square.png","imgNWTK/triangle.png","NaN","NaN","","",""
"1343","","","bandit-task-exp6","48","41541422","0.0-8.0-0.8","female","19","Australia","73593","24727","imgNWTK/square.png","imgNWTK/triangle.png","imgNWTK/square.png","imgNWTK/triangle.png","noninfo","optim","3.88","","39","2","2","126","null","imgNWTK/triangle.png","imgNWTK/square.png","imgNWTK/triangle.png","NaN","NaN","","",""
"1260","","","bandit-task-exp6","49","41545372","0.0-8.0-0.9","female","19","Australia","73593","24727","imgNWTK/square.png","imgNWTK/triangle.png","imgNWTK/square.png","imgNWTK/triangle.png","noninfo","optim","3.88","","40","2","2","117","null","imgNWTK/triangle.png","imgNWTK/square.png","imgNWTK/triangle.png","NaN","NaN","","",""
"1028","","","bandit-task-exp6","50","41549156","0.0-8.0-0.10","female","19","Australia","73593","24727","imgNWTK/square.png","imgNWTK/triangle.png","imgNWTK/square.png","imgNWTK/triangle.png","noninfo","optim","3.88","","41","2","2","129","null","imgNWTK/triangle.png","imgNWTK/square.png","imgNWTK/triangle.png","NaN","NaN","","",""
"1678","","","bandit-task-exp6","51","41553489","0.0-8.0-0.11","female","19","Australia","73593","24727","imgNWTK/square.png","imgNWTK/triangle.png","imgNWTK/square.png","imgNWTK/triangle.png","noninfo","optim","3.88","","42","2","2","130","null","imgNWTK/triangle.png","imgNWTK/square.png","imgNWTK/triangle.png","NaN","NaN","","",""
"1261","","","bandit-task-exp6","52","41557472","0.0-8.0-0.12","female","19","Australia","73593","24727","imgNWTK/square.png","imgNWTK/triangle.png","imgNWTK/square.png","imgNWTK/triangle.png","noninfo","optim","3.88","","43","2","2","123","null","imgNWTK/triangle.png","imgNWTK/square.png","imgNWTK/triangle.png","NaN","NaN","","",""
"1179","","","bandit-task-exp6","53","41561389","0.0-8.0-0.13","female","19","Australia","73593","24727","imgNWTK/square.png","imgNWTK/triangle.png","imgNWTK/square.png","imgNWTK/triangle.png","noninfo","optim","3.88","","44","1","2","0","null","imgNWTK/square.png","imgNWTK/triangle.png","imgNWTK/square.png","NaN","NaN","","",""
"1278","","","bandit-task-exp6","54","41565356","0.0-8.0-0.14","female","19","Australia","73593","24727","imgNWTK/square.png","imgNWTK/triangle.png","imgNWTK/square.png","imgNWTK/triangle.png","noninfo","optim","3.88","","45","1","2","0","null","imgNWTK/square.png","imgNWTK/triangle.png","imgNWTK/square.png","NaN","NaN","","",""
"null","<p><b> Congratulations, you have finished this block. </b> </p><p>Please take a short break before moving onto the next block.</p><p>The next block will start after a 15 second break.</p><b>Remember, the point rewards are the same between blocks","","html-keyboard-response","55","41580361","0.0-9.0","female","19","Australia","73593","24727","imgNWTK/square.png","imgNWTK/triangle.png","imgNWTK/square.png","imgNWTK/triangle.png","noninfo","optim","3.88","","","","","","","","","","","","null","",""
"48738","","","bandit-task-exp6","56","41632888","0.0-10.0-0.0","female","19","Australia","73593","24727","imgNWTK/square.png","imgNWTK/triangle.png","imgNWTK/square.png","imgNWTK/triangle.png","noninfo","optim","3.88","","46","1","2","0","null","imgNWTK/square.png","imgNWTK/triangle.png","imgNWTK/square.png","122","100","","",""
"35381","","","bandit-task-exp6","57","41671591","0.0-10.0-0.1","female","19","Australia","73593","24727","imgNWTK/square.png","imgNWTK/triangle.png","imgNWTK/square.png","imgNWTK/triangle.png","noninfo","optim","3.88","","47","2","2","123","null","imgNWTK/square.png","imgNWTK/triangle.png","imgNWTK/triangle.png","123","111","","",""
"25896","","","bandit-task-exp6","58","41700908","0.0-10.0-0.2","female","19","Australia","73593","24727","imgNWTK/square.png","imgNWTK/triangle.png","imgNWTK/square.png","imgNWTK/triangle.png","noninfo","optim","3.88","","48","2","2","113","null","imgNWTK/square.png","imgNWTK/triangle.png","imgNWTK/triangle.png","123","111","","",""
"27478","","","bandit-task-exp6","59","41731826","0.0-10.0-0.3","female","19","Australia","73593","24727","imgNWTK/square.png","imgNWTK/triangle.png","imgNWTK/square.png","imgNWTK/triangle.png","noninfo","optim","3.88","","49","1","2","0","null","imgNWTK/triangle.png","imgNWTK/square.png","imgNWTK/square.png","123","20000000","","",""
"12645","","","bandit-task-exp6","60","41748173","0.0-10.0-0.4","female","19","Australia","73593","24727","imgNWTK/square.png","imgNWTK/triangle.png","imgNWTK/square.png","imgNWTK/triangle.png","noninfo","optim","3.88","","50","2","1","0","null","imgNWTK/square.png","imgNWTK/triangle.png","imgNWTK/triangle.png","200000","300000","","",""
"11012","","","bandit-task-exp6","61","41763240","0.0-10.0-0.5","female","19","Australia","73593","24727","imgNWTK/square.png","imgNWTK/triangle.png","imgNWTK/square.png","imgNWTK/triangle.png","noninfo","optim","3.88","","51","1","1","73","null","imgNWTK/triangle.png","imgNWTK/square.png","imgNWTK/square.png","213","321","","",""
"9713","","","bandit-task-exp6","62","41776691","0.0-10.0-0.6","female","19","Australia","73593","24727","imgNWTK/square.png","imgNWTK/triangle.png","imgNWTK/square.png","imgNWTK/triangle.png","noninfo","optim","3.88","","52","1","1","83","null","imgNWTK/triangle.png","imgNWTK/square.png","imgNWTK/square.png","123","111","","",""
"7911","","","bandit-task-exp6","63","41788513","0.0-10.0-0.7","female","19","Australia","73593","24727","imgNWTK/square.png","imgNWTK/triangle.png","imgNWTK/square.png","imgNWTK/triangle.png","noninfo","optim","3.88","","53","1","1","84","null","imgNWTK/triangle.png","imgNWTK/square.png","imgNWTK/square.png","111","213","","",""
"16422","","","bandit-task-exp6","64","41809278","0.0-10.0-0.8","female","19","Australia","73593","24727","imgNWTK/square.png","imgNWTK/triangle.png","imgNWTK/square.png","imgNWTK/triangle.png","noninfo","optim","3.88","","54","1","1","73","null","imgNWTK/triangle.png","imgNWTK/square.png","imgNWTK/square.png","123","212","","",""
"7427","","","bandit-task-exp6","65","41819594","0.0-10.0-0.9","female","19","Australia","73593","24727","imgNWTK/square.png","imgNWTK/triangle.png","imgNWTK/square.png","imgNWTK/triangle.png","noninfo","optim","3.88","","55","1","1","86","null","imgNWTK/triangle.png","imgNWTK/square.png","imgNWTK/square.png","123","123","","",""
"6742","","","bandit-task-exp6","66","41831661","0.0-10.0-0.10","female","19","Australia","73593","24727","imgNWTK/square.png","imgNWTK/triangle.png","imgNWTK/square.png","imgNWTK/triangle.png","noninfo","optim","3.88","","56","1","1","77","null","imgNWTK/triangle.png","imgNWTK/square.png","imgNWTK/square.png","123","123","","",""
"7261","","","bandit-task-exp6","67","41842294","0.0-10.0-0.11","female","19","Australia","73593","24727","imgNWTK/square.png","imgNWTK/triangle.png","imgNWTK/square.png","imgNWTK/triangle.png","noninfo","optim","3.88","","57","1","1","88","null","imgNWTK/triangle.png","imgNWTK/square.png","imgNWTK/square.png","123","123","","",""
"7994","","","bandit-task-exp6","68","41853611","0.0-10.0-0.12","female","19","Australia","73593","24727","imgNWTK/square.png","imgNWTK/triangle.png","imgNWTK/square.png","imgNWTK/triangle.png","noninfo","optim","3.88","","58","2","2","110","null","imgNWTK/square.png","imgNWTK/triangle.png","imgNWTK/triangle.png","123","123","","",""
"7295","","","bandit-task-exp6","69","41863875","0.0-10.0-0.13","female","19","Australia","73593","24727","imgNWTK/square.png","imgNWTK/triangle.png","imgNWTK/square.png","imgNWTK/triangle.png","noninfo","optim","3.88","","59","1","1","72","null","imgNWTK/triangle.png","imgNWTK/square.png","imgNWTK/square.png","123","123","","",""
"7898","","","bandit-task-exp6","70","41874760","0.0-10.0-0.14","female","19","Australia","73593","24727","imgNWTK/square.png","imgNWTK/triangle.png","imgNWTK/square.png","imgNWTK/triangle.png","noninfo","optim","3.88","","60","1","2","0","null","imgNWTK/square.png","imgNWTK/triangle.png","imgNWTK/square.png","123","123","","",""
"5366","<p> Congratulations, you have finished the main part of the experiment. </p><p>Before you finish, we have a few short questions about the options and outcomes you saw in the task.</p>","0","html-button-response","71","41880128","0.0-11.0","female","19","Australia","73593","24727","imgNWTK/square.png","imgNWTK/triangle.png","imgNWTK/square.png","imgNWTK/triangle.png","noninfo","optim","3.88","","","","","","","","","","","","","",""
"10815","<p><b>Now, imagine that you clicked on the below button for another 10 trials (this includes <i> BOTH WIN and NO-WIN trials</i>).</p> <img src= 'imgNWTK/square.png'></img></br></br> <p><b>Please type the reward (number of points) you would expect to receive on every trial.</br> Click start to begin.</p>","0","html-button-response","72","41890946","0.0-12.0","female","19","Australia","73593","24727","imgNWTK/square.png","imgNWTK/triangle.png","imgNWTK/square.png","imgNWTK/triangle.png","noninfo","optim","3.88","","","","","","","","","","","","","",""
"8963.900000000373","","","survey-number","73","41899914","0.0-13.0-0.0","female","19","Australia","73593","24727","imgNWTK/square.png","imgNWTK/triangle.png","imgNWTK/square.png","imgNWTK/triangle.png","noninfo","optim","3.88","{""undefined"":""0""}","","","","","","","","","","","","imgNWTK/square.png",""
"4828","","","survey-number","74","41904746","0.0-13.0-0.1","female","19","Australia","73593","24727","imgNWTK/square.png","imgNWTK/triangle.png","imgNWTK/square.png","imgNWTK/triangle.png","noninfo","optim","3.88","{""undefined"":""73""}","","","","","","","","","","","","imgNWTK/square.png",""
"2725.4000000003725","","","survey-number","75","41907475","0.0-13.0-0.2","female","19","Australia","73593","24727","imgNWTK/square.png","imgNWTK/triangle.png","imgNWTK/square.png","imgNWTK/triangle.png","noninfo","optim","3.88","{""undefined"":""0""}","","","","","","","","","","","","imgNWTK/square.png",""
"2080.5","","","survey-number","76","41909559","0.0-13.0-0.3","female","19","Australia","73593","24727","imgNWTK/square.png","imgNWTK/triangle.png","imgNWTK/square.png","imgNWTK/triangle.png","noninfo","optim","3.88","{""undefined"":""0""}","","","","","","","","","","","","imgNWTK/square.png",""
"2968.100000000559","","","survey-number","77","41912530","0.0-13.0-0.4","female","19","Australia","73593","24727","imgNWTK/square.png","imgNWTK/triangle.png","imgNWTK/square.png","imgNWTK/triangle.png","noninfo","optim","3.88","{""undefined"":""88""}","","","","","","","","","","","","imgNWTK/square.png",""
"5114.700000000186","","","survey-number","78","41917648","0.0-13.0-0.5","female","19","Australia","73593","24727","imgNWTK/square.png","imgNWTK/triangle.png","imgNWTK/square.png","imgNWTK/triangle.png","noninfo","optim","3.88","{""undefined"":""112""}","","","","","","","","","","","","imgNWTK/square.png",""
"2780.399999999441","","","survey-number","79","41920432","0.0-13.0-0.6","female","19","Australia","73593","24727","imgNWTK/square.png","imgNWTK/triangle.png","imgNWTK/square.png","imgNWTK/triangle.png","noninfo","optim","3.88","{""undefined"":""0""}","","","","","","","","","","","","imgNWTK/square.png",""
"9878","","","survey-number","80","41930312","0.0-13.0-0.7","female","19","Australia","73593","24727","imgNWTK/square.png","imgNWTK/triangle.png","imgNWTK/square.png","imgNWTK/triangle.png","noninfo","optim","3.88","{""undefined"":""108""}","","","","","","","","","","","","imgNWTK/square.png",""
"2698.5","","","survey-number","81","41933014","0.0-13.0-0.8","female","19","Australia","73593","24727","imgNWTK/square.png","imgNWTK/triangle.png","imgNWTK/square.png","imgNWTK/triangle.png","noninfo","optim","3.88","{""undefined"":""0""}","","","","","","","","","","","","imgNWTK/square.png",""
"1779.5999999996275","","","survey-number","82","41934796","0.0-13.0-0.9","female","19","Australia","73593","24727","imgNWTK/square.png","imgNWTK/triangle.png","imgNWTK/square.png","imgNWTK/triangle.png","noninfo","optim","3.88","{""undefined"":""0""}","","","","","","","","","","","","imgNWTK/square.png",""
"2213","<p><b>Imagine that you clicked on the below button for another 10 trials (this includes <i> both WIN and NO-WIN trials</i>).</p> <img src= 'imgNWTK/triangle.png'></img></br></br> <p><b>Please type the reward (number of points) you would expect to receive on every trial.</br> Click start to begin.</p>","0","html-button-response","83","41937011","0.0-14.0","female","19","Australia","73593","24727","imgNWTK/square.png","imgNWTK/triangle.png","imgNWTK/square.png","imgNWTK/triangle.png","noninfo","optim","3.88","","","","","","","","","","","","","",""
"4467","","","survey-number","84","41941481","0.0-15.0-0.0","female","19","Australia","73593","24727","imgNWTK/square.png","imgNWTK/triangle.png","imgNWTK/square.png","imgNWTK/triangle.png","noninfo","optim","3.88","{""undefined"":""00""}","","","","","","","","","","","","imgNWTK/triangle.png",""
"1811.5","","","survey-number","85","41943296","0.0-15.0-0.1","female","19","Australia","73593","24727","imgNWTK/square.png","imgNWTK/triangle.png","imgNWTK/square.png","imgNWTK/triangle.png","noninfo","optim","3.88","{""undefined"":""0""}","","","","","","","","","","","","imgNWTK/triangle.png",""
"1111.1000000005588","","","survey-number","86","41944410","0.0-15.0-0.2","female","19","Australia","73593","24727","imgNWTK/square.png","imgNWTK/triangle.png","imgNWTK/square.png","imgNWTK/triangle.png","noninfo","optim","3.88","{""undefined"":""0""}","","","","","","","","","","","","imgNWTK/triangle.png",""
"1284.2999999998137","","","survey-number","87","41945696","0.0-15.0-0.3","female","19","Australia","73593","24727","imgNWTK/square.png","imgNWTK/triangle.png","imgNWTK/square.png","imgNWTK/triangle.png","noninfo","optim","3.88","{""undefined"":""0""}","","","","","","","","","","","","imgNWTK/triangle.png",""
"6043.299999999814","","","survey-number","88","41951743","0.0-15.0-0.4","female","19","Australia","73593","24727","imgNWTK/square.png","imgNWTK/triangle.png","imgNWTK/square.png","imgNWTK/triangle.png","noninfo","optim","3.88","{""undefined"":""123""}","","","","","","","","","","","","imgNWTK/triangle.png",""
"5531.600000000559","","","survey-number","89","41957277","0.0-15.0-0.5","female","19","Australia","73593","24727","imgNWTK/square.png","imgNWTK/triangle.png","imgNWTK/square.png","imgNWTK/triangle.png","noninfo","optim","3.88","{""undefined"":""88""}","","","","","","","","","","","","imgNWTK/triangle.png",""
"6134.4000000003725","","","survey-number","90","41963414","0.0-15.0-0.6","female","19","Australia","73593","24727","imgNWTK/square.png","imgNWTK/triangle.png","imgNWTK/square.png","imgNWTK/triangle.png","noninfo","optim","3.88","{""undefined"":""73""}","","","","","","","","","","","","imgNWTK/triangle.png",""
"3264.7000000001863","","","survey-number","91","41966682","0.0-15.0-0.7","female","19","Australia","73593","24727","imgNWTK/square.png","imgNWTK/triangle.png","imgNWTK/square.png","imgNWTK/triangle.png","noninfo","optim","3.88","{""undefined"":""0""}","","","","","","","","","","","","imgNWTK/triangle.png",""
"1162.7000000001863","","","survey-number","92","41967848","0.0-15.0-0.8","female","19","Australia","73593","24727","imgNWTK/square.png","imgNWTK/triangle.png","imgNWTK/square.png","imgNWTK/triangle.png","noninfo","optim","3.88","{""undefined"":""0""}","","","","","","","","","","","","imgNWTK/triangle.png",""
"1846.2999999998137","","","survey-number","93","41969697","0.0-15.0-0.9","female","19","Australia","73593","24727","imgNWTK/square.png","imgNWTK/triangle.png","imgNWTK/square.png","imgNWTK/triangle.png","noninfo","optim","3.88","{""undefined"":""0""}","","","","","","","","","","","","imgNWTK/triangle.png",""
"43710","","","survey-number","94","42013416","0.0-16.0","female","19","Australia","73593","24727","imgNWTK/square.png","imgNWTK/triangle.png","imgNWTK/square.png","imgNWTK/triangle.png","noninfo","optim","3.88","{""undefined"":""92""}","","","","","","","","","","","","","imgNWTK/triangle.png"
"5891.799999999814","","","survey-number","95","42019312","0.0-17.0","female","19","Australia","73593","24727","imgNWTK/square.png","imgNWTK/triangle.png","imgNWTK/square.png","imgNWTK/triangle.png","noninfo","optim","3.88","{""undefined"":""92""}","","","","","","","","","","","","","imgNWTK/square.png"
"28847","<p style=""text-align:left;"">Great! We are almost at the end of the study... (Please do not close the browser window yet.)</p><p> Your final points balance is 3885, which equals to a bonus payment of $3.88. Please collect your payment from Mathews Building Room 721 (Mon-Fri 9am-5pm); please email amy.x.li@unsw.edu.au at least 24 hours prior to collection so that this is ready for you.</p><p style=""text-align:left;"">To view the debriefing form, please click <a href=""./imgNWTK/debrief_3205.pdf"" target=""_blank"">here</a> to download a copy.</p><p style=""text-align:left;"">Then, <b>please click the below button</b> to confirm that you have received your debrief and to complete the study. Upon clicking ""Finish!"", your SONA credit will be automatically assigned.</p>","0","html-button-response","96","42048161","0.0-18.0","female","19","Australia","73593","24727","imgNWTK/square.png","imgNWTK/triangle.png","imgNWTK/square.png","imgNWTK/triangle.png","noninfo","optim","3.88","","","","","","","","","","","","","",""
