"rt","stimulus","button_pressed","trial_type","trial_index","time_elapsed","internal_node_id","gender","age","language","PID","sona_id","subStim","optStim","stim1","stim2","infoCond","optimCond","bonus","responses","banditTrial","choice","cue","feedback","estimateData","leftOption","rightOption","choiceName","leftInput","rightInput","key_press","postQ","singleEst"
"54758","<p>Thank you for signing up to participate in SONA Study 465! <br> During this study, please focus on the experiment and refrain from activities such as:</p>- <b>Switching to other tabs on your browser (this will be monitored via the experiment)</br> - Using your mobile phone/cell phone</br> - Communicating with others</br></br></b><p>This way, you are helping to provide data that is useful for psychological research. We thank you for your cooperation!</p>","0","html-button-response","0","54778","0.0-0.0","male","20","Australia","74946","26009","imgNWTK/KeepItSecret.jpg","imgNWTK/FindOutNow.jpg","imgNWTK/KeepItSecret.jpg","imgNWTK/FindOutNow.jpg","info","sub","2.84","","","","","","","","","","","","","",""
"2390","<p>Welcome to the experiment!</p><p>You will now read some instructions about the task. Press the 'Next' button to continue. </p>","0","html-button-response","1","57177","0.0-1.0","male","20","Australia","74946","26009","imgNWTK/KeepItSecret.jpg","imgNWTK/FindOutNow.jpg","imgNWTK/KeepItSecret.jpg","imgNWTK/FindOutNow.jpg","info","sub","2.84","","","","","","","","","","","","","",""
"41190","<p> On each trial throughout the experiment you will choose between the options </br><b> Find Out Now </b> and <b> Keep It Secret </b>, as shown below.</p><div><div style= 'float: left; width: 300px; margin: 10px 10px;'><img src= 'imgNWTK/KeepItSecret.jpg'></img></div><div style= 'float: right; width: 300px; margin: 10px 10px;'><img src= 'imgNWTK/FindOutNow.jpg'></img></div></div><br/><br/><br/><br/><br/><br/><br/><br/><br/><br/><br/><p>Each option results in winning points or receiving 0 points.</br>There is a 50% chance of either winning or receiving 0 points.</p><p>You won't receive the outcome until after a <b> 20 second delay</b>. However, selecting the Find Out Now option will allow you to find out about the outcome early, whereas the Keep It Secret option will not. </p>","0","html-button-response","2","98375","0.0-2.0-0.0","male","20","Australia","74946","26009","imgNWTK/KeepItSecret.jpg","imgNWTK/FindOutNow.jpg","imgNWTK/KeepItSecret.jpg","imgNWTK/FindOutNow.jpg","info","sub","2.84","","","","","","","","","","","","","",""
"44911","<img src= 'cues/Experiment6.png'></img><p>As seen above, when choosing the <b>'Find Out Now'</b> option, you will receive either a happy face or sad face.</br>The happy face means you will win points after the delay, whereas the sad face means you will receive 0 points.</br></p><p> When choosing the <b> 'Keep it Secret' </b> option you will receive a confused face.</br> This face appears regardless of whether you are going to win points or not. </p>In short, choosing 'Find Out Now' allows you to find out the outcome before you experience it (after the delay).</br></br>","0","html-button-response","3","143294","0.0-2.0-1.0","male","20","Australia","74946","26009","imgNWTK/KeepItSecret.jpg","imgNWTK/FindOutNow.jpg","imgNWTK/KeepItSecret.jpg","imgNWTK/FindOutNow.jpg","info","sub","2.84","","","","","","","","","","","","","",""
"13626","<img src= 'cues/winTrials_info.png' width = '1200'></img><p>To reiterate, 50% of the outcomes of each option will be WIN TRIALS, and the other 50% will be NO-WIN TRIALS.","0","html-button-response","4","156937","0.0-2.0-2.0","male","20","Australia","74946","26009","imgNWTK/KeepItSecret.jpg","imgNWTK/FindOutNow.jpg","imgNWTK/KeepItSecret.jpg","imgNWTK/FindOutNow.jpg","info","sub","2.84","","","","","","","","","","","","","",""
"13027","<p> There will be <b>four blocks</b> in the experiment.</br>You will be given a short 15 second break between each block.</p><p><b>The points and the options will remain the same between the blocks.</b></p>The blocks are there just to give you a small break.</br></br><p>The points you earn in the task are also equal to <b> actual money</b>.</br> <b>1000 points is equal to $1.</b></p><p>This is the rate you will be paid at the experiment's end.","0","html-button-response","5","170016","0.0-2.0-3.0","male","20","Australia","74946","26009","imgNWTK/KeepItSecret.jpg","imgNWTK/FindOutNow.jpg","imgNWTK/KeepItSecret.jpg","imgNWTK/FindOutNow.jpg","info","sub","2.84","","","","","","","","","","","","","",""
"15951","","","survey-multi-choice","6","186003","0.0-2.0-4.0","male","20","Australia","74946","26009","imgNWTK/KeepItSecret.jpg","imgNWTK/FindOutNow.jpg","imgNWTK/KeepItSecret.jpg","imgNWTK/FindOutNow.jpg","info","sub","2.84","{""Q0"":""20 Seconds"",""Q1"":""True"",""Q2"":""Equally"",""Q3"":""True""}","","","","","","","","","","","","",""
"4147","<p> Well done, all your answers were correct! <br> The experiment is about to start now. <br/> Click start to continue, or email your researcher <b>(amy.x.li@unsw.edu.au)</b> if you have any questions before starting.","0","html-button-response","7","190180","0.0-3.0","male","20","Australia","74946","26009","imgNWTK/KeepItSecret.jpg","imgNWTK/FindOutNow.jpg","imgNWTK/KeepItSecret.jpg","imgNWTK/FindOutNow.jpg","info","sub","2.84","","","","","","","","","","","","","",""
"4139","","","bandit-task-exp6","8","217180","0.0-4.0-0.0","male","20","Australia","74946","26009","imgNWTK/KeepItSecret.jpg","imgNWTK/FindOutNow.jpg","imgNWTK/KeepItSecret.jpg","imgNWTK/FindOutNow.jpg","info","sub","2.84","","1","1","1","119","null","imgNWTK/FindOutNow.jpg","imgNWTK/KeepItSecret.jpg","imgNWTK/KeepItSecret.jpg","NaN","NaN","","",""
"2714","","","bandit-task-exp6","9","242577","0.0-4.0-0.1","male","20","Australia","74946","26009","imgNWTK/KeepItSecret.jpg","imgNWTK/FindOutNow.jpg","imgNWTK/KeepItSecret.jpg","imgNWTK/FindOutNow.jpg","info","sub","2.84","","2","2","1","0","null","imgNWTK/KeepItSecret.jpg","imgNWTK/FindOutNow.jpg","imgNWTK/FindOutNow.jpg","NaN","NaN","","",""
"1888","","","bandit-task-exp6","10","266948","0.0-4.0-0.2","male","20","Australia","74946","26009","imgNWTK/KeepItSecret.jpg","imgNWTK/FindOutNow.jpg","imgNWTK/KeepItSecret.jpg","imgNWTK/FindOutNow.jpg","info","sub","2.84","","3","2","2","90","null","imgNWTK/FindOutNow.jpg","imgNWTK/KeepItSecret.jpg","imgNWTK/FindOutNow.jpg","NaN","NaN","","",""
"3062","","","bandit-task-exp6","11","292845","0.0-4.0-0.3","male","20","Australia","74946","26009","imgNWTK/KeepItSecret.jpg","imgNWTK/FindOutNow.jpg","imgNWTK/KeepItSecret.jpg","imgNWTK/FindOutNow.jpg","info","sub","2.84","","4","1","2","0","null","imgNWTK/KeepItSecret.jpg","imgNWTK/FindOutNow.jpg","imgNWTK/KeepItSecret.jpg","NaN","NaN","","",""
"1436","","","bandit-task-exp6","12","316892","0.0-4.0-0.4","male","20","Australia","74946","26009","imgNWTK/KeepItSecret.jpg","imgNWTK/FindOutNow.jpg","imgNWTK/KeepItSecret.jpg","imgNWTK/FindOutNow.jpg","info","sub","2.84","","5","1","1","111","null","imgNWTK/FindOutNow.jpg","imgNWTK/KeepItSecret.jpg","imgNWTK/KeepItSecret.jpg","NaN","NaN","","",""
"1321","","","bandit-task-exp6","13","340458","0.0-4.0-0.5","male","20","Australia","74946","26009","imgNWTK/KeepItSecret.jpg","imgNWTK/FindOutNow.jpg","imgNWTK/KeepItSecret.jpg","imgNWTK/FindOutNow.jpg","info","sub","2.84","","6","2","1","0","null","imgNWTK/FindOutNow.jpg","imgNWTK/KeepItSecret.jpg","imgNWTK/FindOutNow.jpg","NaN","NaN","","",""
"2253","","","bandit-task-exp6","14","365715","0.0-4.0-0.6","male","20","Australia","74946","26009","imgNWTK/KeepItSecret.jpg","imgNWTK/FindOutNow.jpg","imgNWTK/KeepItSecret.jpg","imgNWTK/FindOutNow.jpg","info","sub","2.84","","7","1","1","123","null","imgNWTK/KeepItSecret.jpg","imgNWTK/FindOutNow.jpg","imgNWTK/KeepItSecret.jpg","NaN","NaN","","",""
"2362","","","bandit-task-exp6","15","390270","0.0-4.0-0.7","male","20","Australia","74946","26009","imgNWTK/KeepItSecret.jpg","imgNWTK/FindOutNow.jpg","imgNWTK/KeepItSecret.jpg","imgNWTK/FindOutNow.jpg","info","sub","2.84","","8","2","1","0","null","imgNWTK/KeepItSecret.jpg","imgNWTK/FindOutNow.jpg","imgNWTK/FindOutNow.jpg","NaN","NaN","","",""
"1257","","","bandit-task-exp6","16","413948","0.0-4.0-0.8","male","20","Australia","74946","26009","imgNWTK/KeepItSecret.jpg","imgNWTK/FindOutNow.jpg","imgNWTK/KeepItSecret.jpg","imgNWTK/FindOutNow.jpg","info","sub","2.84","","9","2","1","0","null","imgNWTK/FindOutNow.jpg","imgNWTK/KeepItSecret.jpg","imgNWTK/FindOutNow.jpg","NaN","NaN","","",""
"1840","","","bandit-task-exp6","17","438160","0.0-4.0-0.9","male","20","Australia","74946","26009","imgNWTK/KeepItSecret.jpg","imgNWTK/FindOutNow.jpg","imgNWTK/KeepItSecret.jpg","imgNWTK/FindOutNow.jpg","info","sub","2.84","","10","2","2","86","null","imgNWTK/FindOutNow.jpg","imgNWTK/KeepItSecret.jpg","imgNWTK/FindOutNow.jpg","NaN","NaN","","",""
"1984","","","bandit-task-exp6","18","462487","0.0-4.0-0.10","male","20","Australia","74946","26009","imgNWTK/KeepItSecret.jpg","imgNWTK/FindOutNow.jpg","imgNWTK/KeepItSecret.jpg","imgNWTK/FindOutNow.jpg","info","sub","2.84","","11","2","1","0","null","imgNWTK/FindOutNow.jpg","imgNWTK/KeepItSecret.jpg","imgNWTK/FindOutNow.jpg","NaN","NaN","","",""
"1430","","","bandit-task-exp6","19","486560","0.0-4.0-0.11","male","20","Australia","74946","26009","imgNWTK/KeepItSecret.jpg","imgNWTK/FindOutNow.jpg","imgNWTK/KeepItSecret.jpg","imgNWTK/FindOutNow.jpg","info","sub","2.84","","12","1","1","115","null","imgNWTK/KeepItSecret.jpg","imgNWTK/FindOutNow.jpg","imgNWTK/KeepItSecret.jpg","NaN","NaN","","",""
"1518","","","bandit-task-exp6","20","511400","0.0-4.0-0.12","male","20","Australia","74946","26009","imgNWTK/KeepItSecret.jpg","imgNWTK/FindOutNow.jpg","imgNWTK/KeepItSecret.jpg","imgNWTK/FindOutNow.jpg","info","sub","2.84","","13","1","2","0","null","imgNWTK/FindOutNow.jpg","imgNWTK/KeepItSecret.jpg","imgNWTK/KeepItSecret.jpg","NaN","NaN","","",""
"1189","","","bandit-task-exp6","21","534763","0.0-4.0-0.13","male","20","Australia","74946","26009","imgNWTK/KeepItSecret.jpg","imgNWTK/FindOutNow.jpg","imgNWTK/KeepItSecret.jpg","imgNWTK/FindOutNow.jpg","info","sub","2.84","","14","2","2","85","null","imgNWTK/FindOutNow.jpg","imgNWTK/KeepItSecret.jpg","imgNWTK/FindOutNow.jpg","NaN","NaN","","",""
"1733","","","bandit-task-exp6","22","558290","0.0-4.0-0.14","male","20","Australia","74946","26009","imgNWTK/KeepItSecret.jpg","imgNWTK/FindOutNow.jpg","imgNWTK/KeepItSecret.jpg","imgNWTK/FindOutNow.jpg","info","sub","2.84","","15","2","2","88","null","imgNWTK/KeepItSecret.jpg","imgNWTK/FindOutNow.jpg","imgNWTK/FindOutNow.jpg","NaN","NaN","","",""
"null","<p><b> Congratulations, you have finished this block. </b> </p><p>Please take a short break before moving onto the next block.</p><p>The next block will start after a 15 second break.</p><b>Remember, the point rewards are the same between blocks","","html-keyboard-response","23","573322","0.0-5.0","male","20","Australia","74946","26009","imgNWTK/KeepItSecret.jpg","imgNWTK/FindOutNow.jpg","imgNWTK/KeepItSecret.jpg","imgNWTK/FindOutNow.jpg","info","sub","2.84","","","","","","","","","","","","null","",""
"3643","","","bandit-task-exp6","24","598996","0.0-6.0-0.0","male","20","Australia","74946","26009","imgNWTK/KeepItSecret.jpg","imgNWTK/FindOutNow.jpg","imgNWTK/KeepItSecret.jpg","imgNWTK/FindOutNow.jpg","info","sub","2.84","","16","1","2","0","null","imgNWTK/FindOutNow.jpg","imgNWTK/KeepItSecret.jpg","imgNWTK/KeepItSecret.jpg","NaN","NaN","","",""
"1126","","","bandit-task-exp6","25","621967","0.0-6.0-0.1","male","20","Australia","74946","26009","imgNWTK/KeepItSecret.jpg","imgNWTK/FindOutNow.jpg","imgNWTK/KeepItSecret.jpg","imgNWTK/FindOutNow.jpg","info","sub","2.84","","17","1","1","115","null","imgNWTK/FindOutNow.jpg","imgNWTK/KeepItSecret.jpg","imgNWTK/KeepItSecret.jpg","NaN","NaN","","",""
"1957","","","bandit-task-exp6","26","646597","0.0-6.0-0.2","male","20","Australia","74946","26009","imgNWTK/KeepItSecret.jpg","imgNWTK/FindOutNow.jpg","imgNWTK/KeepItSecret.jpg","imgNWTK/FindOutNow.jpg","info","sub","2.84","","18","1","2","0","null","imgNWTK/FindOutNow.jpg","imgNWTK/KeepItSecret.jpg","imgNWTK/KeepItSecret.jpg","NaN","NaN","","",""
"2322","","","bandit-task-exp6","27","671139","0.0-6.0-0.3","male","20","Australia","74946","26009","imgNWTK/KeepItSecret.jpg","imgNWTK/FindOutNow.jpg","imgNWTK/KeepItSecret.jpg","imgNWTK/FindOutNow.jpg","info","sub","2.84","","19","2","1","0","null","imgNWTK/KeepItSecret.jpg","imgNWTK/FindOutNow.jpg","imgNWTK/FindOutNow.jpg","NaN","NaN","","",""
"1273","","","bandit-task-exp6","28","695439","0.0-6.0-0.4","male","20","Australia","74946","26009","imgNWTK/KeepItSecret.jpg","imgNWTK/FindOutNow.jpg","imgNWTK/KeepItSecret.jpg","imgNWTK/FindOutNow.jpg","info","sub","2.84","","20","2","1","0","null","imgNWTK/KeepItSecret.jpg","imgNWTK/FindOutNow.jpg","imgNWTK/FindOutNow.jpg","NaN","NaN","","",""
"1847","","","bandit-task-exp6","29","719606","0.0-6.0-0.5","male","20","Australia","74946","26009","imgNWTK/KeepItSecret.jpg","imgNWTK/FindOutNow.jpg","imgNWTK/KeepItSecret.jpg","imgNWTK/FindOutNow.jpg","info","sub","2.84","","21","1","2","0","null","imgNWTK/FindOutNow.jpg","imgNWTK/KeepItSecret.jpg","imgNWTK/KeepItSecret.jpg","NaN","NaN","","",""
"2118","","","bandit-task-exp6","30","744775","0.0-6.0-0.6","male","20","Australia","74946","26009","imgNWTK/KeepItSecret.jpg","imgNWTK/FindOutNow.jpg","imgNWTK/KeepItSecret.jpg","imgNWTK/FindOutNow.jpg","info","sub","2.84","","22","1","1","112","null","imgNWTK/KeepItSecret.jpg","imgNWTK/FindOutNow.jpg","imgNWTK/KeepItSecret.jpg","NaN","NaN","","",""
"1635","","","bandit-task-exp6","31","768892","0.0-6.0-0.7","male","20","Australia","74946","26009","imgNWTK/KeepItSecret.jpg","imgNWTK/FindOutNow.jpg","imgNWTK/KeepItSecret.jpg","imgNWTK/FindOutNow.jpg","info","sub","2.84","","23","1","1","129","null","imgNWTK/FindOutNow.jpg","imgNWTK/KeepItSecret.jpg","imgNWTK/KeepItSecret.jpg","NaN","NaN","","",""
"2215","","","bandit-task-exp6","32","793919","0.0-6.0-0.8","male","20","Australia","74946","26009","imgNWTK/KeepItSecret.jpg","imgNWTK/FindOutNow.jpg","imgNWTK/KeepItSecret.jpg","imgNWTK/FindOutNow.jpg","info","sub","2.84","","24","1","1","122","null","imgNWTK/KeepItSecret.jpg","imgNWTK/FindOutNow.jpg","imgNWTK/KeepItSecret.jpg","NaN","NaN","","",""
"1859","","","bandit-task-exp6","33","818579","0.0-6.0-0.9","male","20","Australia","74946","26009","imgNWTK/KeepItSecret.jpg","imgNWTK/FindOutNow.jpg","imgNWTK/KeepItSecret.jpg","imgNWTK/FindOutNow.jpg","info","sub","2.84","","25","1","2","0","null","imgNWTK/FindOutNow.jpg","imgNWTK/KeepItSecret.jpg","imgNWTK/KeepItSecret.jpg","NaN","NaN","","",""
"1633","","","bandit-task-exp6","34","842360","0.0-6.0-0.10","male","20","Australia","74946","26009","imgNWTK/KeepItSecret.jpg","imgNWTK/FindOutNow.jpg","imgNWTK/KeepItSecret.jpg","imgNWTK/FindOutNow.jpg","info","sub","2.84","","26","1","1","116","null","imgNWTK/FindOutNow.jpg","imgNWTK/KeepItSecret.jpg","imgNWTK/KeepItSecret.jpg","NaN","NaN","","",""
"2889","","","bandit-task-exp6","35","867297","0.0-6.0-0.11","male","20","Australia","74946","26009","imgNWTK/KeepItSecret.jpg","imgNWTK/FindOutNow.jpg","imgNWTK/KeepItSecret.jpg","imgNWTK/FindOutNow.jpg","info","sub","2.84","","27","2","1","0","null","imgNWTK/FindOutNow.jpg","imgNWTK/KeepItSecret.jpg","imgNWTK/FindOutNow.jpg","NaN","NaN","","",""
"1101","","","bandit-task-exp6","36","890609","0.0-6.0-0.12","male","20","Australia","74946","26009","imgNWTK/KeepItSecret.jpg","imgNWTK/FindOutNow.jpg","imgNWTK/KeepItSecret.jpg","imgNWTK/FindOutNow.jpg","info","sub","2.84","","28","2","1","0","null","imgNWTK/FindOutNow.jpg","imgNWTK/KeepItSecret.jpg","imgNWTK/FindOutNow.jpg","NaN","NaN","","",""
"1440","","","bandit-task-exp6","37","914736","0.0-6.0-0.13","male","20","Australia","74946","26009","imgNWTK/KeepItSecret.jpg","imgNWTK/FindOutNow.jpg","imgNWTK/KeepItSecret.jpg","imgNWTK/FindOutNow.jpg","info","sub","2.84","","29","1","2","0","null","imgNWTK/KeepItSecret.jpg","imgNWTK/FindOutNow.jpg","imgNWTK/KeepItSecret.jpg","NaN","NaN","","",""
"1605","","","bandit-task-exp6","38","938856","0.0-6.0-0.14","male","20","Australia","74946","26009","imgNWTK/KeepItSecret.jpg","imgNWTK/FindOutNow.jpg","imgNWTK/KeepItSecret.jpg","imgNWTK/FindOutNow.jpg","info","sub","2.84","","30","1","2","0","null","imgNWTK/KeepItSecret.jpg","imgNWTK/FindOutNow.jpg","imgNWTK/KeepItSecret.jpg","NaN","NaN","","",""
"null","<p><b> Congratulations, you have finished this block. </b> </p><p>Please take a short break before moving onto the next block.</p><p>The next block will start after a 15 second break.</p><b>Remember, the point rewards are the same between blocks","","html-keyboard-response","39","953881","0.0-7.0","male","20","Australia","74946","26009","imgNWTK/KeepItSecret.jpg","imgNWTK/FindOutNow.jpg","imgNWTK/KeepItSecret.jpg","imgNWTK/FindOutNow.jpg","info","sub","2.84","","","","","","","","","","","","null","",""
"3557","","","bandit-task-exp6","40","980018","0.0-8.0-0.0","male","20","Australia","74946","26009","imgNWTK/KeepItSecret.jpg","imgNWTK/FindOutNow.jpg","imgNWTK/KeepItSecret.jpg","imgNWTK/FindOutNow.jpg","info","sub","2.84","","31","1","2","0","null","imgNWTK/KeepItSecret.jpg","imgNWTK/FindOutNow.jpg","imgNWTK/KeepItSecret.jpg","NaN","NaN","","",""
"1765","","","bandit-task-exp6","41","1004150","0.0-8.0-0.1","male","20","Australia","74946","26009","imgNWTK/KeepItSecret.jpg","imgNWTK/FindOutNow.jpg","imgNWTK/KeepItSecret.jpg","imgNWTK/FindOutNow.jpg","info","sub","2.84","","32","1","2","0","null","imgNWTK/FindOutNow.jpg","imgNWTK/KeepItSecret.jpg","imgNWTK/KeepItSecret.jpg","NaN","NaN","","",""
"3170","","","bandit-task-exp6","42","1030393","0.0-8.0-0.2","male","20","Australia","74946","26009","imgNWTK/KeepItSecret.jpg","imgNWTK/FindOutNow.jpg","imgNWTK/KeepItSecret.jpg","imgNWTK/FindOutNow.jpg","info","sub","2.84","","33","1","1","120","null","imgNWTK/KeepItSecret.jpg","imgNWTK/FindOutNow.jpg","imgNWTK/KeepItSecret.jpg","NaN","NaN","","",""
"3475","","","bandit-task-exp6","43","1056331","0.0-8.0-0.3","male","20","Australia","74946","26009","imgNWTK/KeepItSecret.jpg","imgNWTK/FindOutNow.jpg","imgNWTK/KeepItSecret.jpg","imgNWTK/FindOutNow.jpg","info","sub","2.84","","34","1","2","0","null","imgNWTK/FindOutNow.jpg","imgNWTK/KeepItSecret.jpg","imgNWTK/KeepItSecret.jpg","NaN","NaN","","",""
"1464","","","bandit-task-exp6","44","1080610","0.0-8.0-0.4","male","20","Australia","74946","26009","imgNWTK/KeepItSecret.jpg","imgNWTK/FindOutNow.jpg","imgNWTK/KeepItSecret.jpg","imgNWTK/FindOutNow.jpg","info","sub","2.84","","35","1","2","0","null","imgNWTK/FindOutNow.jpg","imgNWTK/KeepItSecret.jpg","imgNWTK/KeepItSecret.jpg","NaN","NaN","","",""
"1808","","","bandit-task-exp6","45","1105968","0.0-8.0-0.5","male","20","Australia","74946","26009","imgNWTK/KeepItSecret.jpg","imgNWTK/FindOutNow.jpg","imgNWTK/KeepItSecret.jpg","imgNWTK/FindOutNow.jpg","info","sub","2.84","","36","1","1","126","null","imgNWTK/KeepItSecret.jpg","imgNWTK/FindOutNow.jpg","imgNWTK/KeepItSecret.jpg","NaN","NaN","","",""
"1488","","","bandit-task-exp6","46","1130862","0.0-8.0-0.6","male","20","Australia","74946","26009","imgNWTK/KeepItSecret.jpg","imgNWTK/FindOutNow.jpg","imgNWTK/KeepItSecret.jpg","imgNWTK/FindOutNow.jpg","info","sub","2.84","","37","1","1","118","null","imgNWTK/FindOutNow.jpg","imgNWTK/KeepItSecret.jpg","imgNWTK/KeepItSecret.jpg","NaN","NaN","","",""
"1779","","","bandit-task-exp6","47","1155307","0.0-8.0-0.7","male","20","Australia","74946","26009","imgNWTK/KeepItSecret.jpg","imgNWTK/FindOutNow.jpg","imgNWTK/KeepItSecret.jpg","imgNWTK/FindOutNow.jpg","info","sub","2.84","","38","1","2","0","null","imgNWTK/FindOutNow.jpg","imgNWTK/KeepItSecret.jpg","imgNWTK/KeepItSecret.jpg","NaN","NaN","","",""
"1775","","","bandit-task-exp6","48","1179741","0.0-8.0-0.8","male","20","Australia","74946","26009","imgNWTK/KeepItSecret.jpg","imgNWTK/FindOutNow.jpg","imgNWTK/KeepItSecret.jpg","imgNWTK/FindOutNow.jpg","info","sub","2.84","","39","1","1","118","null","imgNWTK/KeepItSecret.jpg","imgNWTK/FindOutNow.jpg","imgNWTK/KeepItSecret.jpg","NaN","NaN","","",""
"1386","","","bandit-task-exp6","49","1204807","0.0-8.0-0.9","male","20","Australia","74946","26009","imgNWTK/KeepItSecret.jpg","imgNWTK/FindOutNow.jpg","imgNWTK/KeepItSecret.jpg","imgNWTK/FindOutNow.jpg","info","sub","2.84","","40","1","1","113","null","imgNWTK/FindOutNow.jpg","imgNWTK/KeepItSecret.jpg","imgNWTK/KeepItSecret.jpg","NaN","NaN","","",""
"1625","","","bandit-task-exp6","50","1231073","0.0-8.0-0.10","male","20","Australia","74946","26009","imgNWTK/KeepItSecret.jpg","imgNWTK/FindOutNow.jpg","imgNWTK/KeepItSecret.jpg","imgNWTK/FindOutNow.jpg","info","sub","2.84","","41","2","1","0","null","imgNWTK/FindOutNow.jpg","imgNWTK/KeepItSecret.jpg","imgNWTK/FindOutNow.jpg","NaN","NaN","","",""
"1331","","","bandit-task-exp6","51","1254950","0.0-8.0-0.11","male","20","Australia","74946","26009","imgNWTK/KeepItSecret.jpg","imgNWTK/FindOutNow.jpg","imgNWTK/KeepItSecret.jpg","imgNWTK/FindOutNow.jpg","info","sub","2.84","","42","1","2","0","null","imgNWTK/KeepItSecret.jpg","imgNWTK/FindOutNow.jpg","imgNWTK/KeepItSecret.jpg","NaN","NaN","","",""
"1356","","","bandit-task-exp6","52","1278693","0.0-8.0-0.12","male","20","Australia","74946","26009","imgNWTK/KeepItSecret.jpg","imgNWTK/FindOutNow.jpg","imgNWTK/KeepItSecret.jpg","imgNWTK/FindOutNow.jpg","info","sub","2.84","","43","1","1","113","null","imgNWTK/KeepItSecret.jpg","imgNWTK/FindOutNow.jpg","imgNWTK/KeepItSecret.jpg","NaN","NaN","","",""
"1966","","","bandit-task-exp6","53","1303693","0.0-8.0-0.13","male","20","Australia","74946","26009","imgNWTK/KeepItSecret.jpg","imgNWTK/FindOutNow.jpg","imgNWTK/KeepItSecret.jpg","imgNWTK/FindOutNow.jpg","info","sub","2.84","","44","1","1","121","null","imgNWTK/FindOutNow.jpg","imgNWTK/KeepItSecret.jpg","imgNWTK/KeepItSecret.jpg","NaN","NaN","","",""
"1877","","","bandit-task-exp6","54","1328208","0.0-8.0-0.14","male","20","Australia","74946","26009","imgNWTK/KeepItSecret.jpg","imgNWTK/FindOutNow.jpg","imgNWTK/KeepItSecret.jpg","imgNWTK/FindOutNow.jpg","info","sub","2.84","","45","1","1","114","null","imgNWTK/KeepItSecret.jpg","imgNWTK/FindOutNow.jpg","imgNWTK/KeepItSecret.jpg","NaN","NaN","","",""
"null","<p><b> Congratulations, you have finished this block. </b> </p><p>Please take a short break before moving onto the next block.</p><p>The next block will start after a 15 second break.</p><b>Remember, the point rewards are the same between blocks","","html-keyboard-response","55","1343231","0.0-9.0","male","20","Australia","74946","26009","imgNWTK/KeepItSecret.jpg","imgNWTK/FindOutNow.jpg","imgNWTK/KeepItSecret.jpg","imgNWTK/FindOutNow.jpg","info","sub","2.84","","","","","","","","","","","","null","",""
"27214","","","bandit-task-exp6","56","1392962","0.0-10.0-0.0","male","20","Australia","74946","26009","imgNWTK/KeepItSecret.jpg","imgNWTK/FindOutNow.jpg","imgNWTK/KeepItSecret.jpg","imgNWTK/FindOutNow.jpg","info","sub","2.84","","46","1","2","0","null","imgNWTK/FindOutNow.jpg","imgNWTK/KeepItSecret.jpg","imgNWTK/KeepItSecret.jpg","0","112","","",""
"17635","","","bandit-task-exp6","57","1433007","0.0-10.0-0.1","male","20","Australia","74946","26009","imgNWTK/KeepItSecret.jpg","imgNWTK/FindOutNow.jpg","imgNWTK/KeepItSecret.jpg","imgNWTK/FindOutNow.jpg","info","sub","2.84","","47","2","1","0","null","imgNWTK/FindOutNow.jpg","imgNWTK/KeepItSecret.jpg","imgNWTK/FindOutNow.jpg","100","121","","",""
"11062","","","bandit-task-exp6","58","1467695","0.0-10.0-0.2","male","20","Australia","74946","26009","imgNWTK/KeepItSecret.jpg","imgNWTK/FindOutNow.jpg","imgNWTK/KeepItSecret.jpg","imgNWTK/FindOutNow.jpg","info","sub","2.84","","48","1","2","0","null","imgNWTK/FindOutNow.jpg","imgNWTK/KeepItSecret.jpg","imgNWTK/KeepItSecret.jpg","80","120","","",""
"10284","","","bandit-task-exp6","59","1500412","0.0-10.0-0.3","male","20","Australia","74946","26009","imgNWTK/KeepItSecret.jpg","imgNWTK/FindOutNow.jpg","imgNWTK/KeepItSecret.jpg","imgNWTK/FindOutNow.jpg","info","sub","2.84","","49","2","2","82","null","imgNWTK/KeepItSecret.jpg","imgNWTK/FindOutNow.jpg","imgNWTK/FindOutNow.jpg","90","130","","",""
"9875","","","bandit-task-exp6","60","1532213","0.0-10.0-0.4","male","20","Australia","74946","26009","imgNWTK/KeepItSecret.jpg","imgNWTK/FindOutNow.jpg","imgNWTK/KeepItSecret.jpg","imgNWTK/FindOutNow.jpg","info","sub","2.84","","50","1","2","0","null","imgNWTK/KeepItSecret.jpg","imgNWTK/FindOutNow.jpg","imgNWTK/KeepItSecret.jpg","120","80","","",""
"13830","","","bandit-task-exp6","61","1568965","0.0-10.0-0.5","male","20","Australia","74946","26009","imgNWTK/KeepItSecret.jpg","imgNWTK/FindOutNow.jpg","imgNWTK/KeepItSecret.jpg","imgNWTK/FindOutNow.jpg","info","sub","2.84","","51","1","2","0","null","imgNWTK/KeepItSecret.jpg","imgNWTK/FindOutNow.jpg","imgNWTK/KeepItSecret.jpg","90","88","","",""
"9011","","","bandit-task-exp6","62","1600552","0.0-10.0-0.6","male","20","Australia","74946","26009","imgNWTK/KeepItSecret.jpg","imgNWTK/FindOutNow.jpg","imgNWTK/KeepItSecret.jpg","imgNWTK/FindOutNow.jpg","info","sub","2.84","","52","2","2","86","null","imgNWTK/KeepItSecret.jpg","imgNWTK/FindOutNow.jpg","imgNWTK/FindOutNow.jpg","100","100","","",""
"10627","","","bandit-task-exp6","63","1633466","0.0-10.0-0.7","male","20","Australia","74946","26009","imgNWTK/KeepItSecret.jpg","imgNWTK/FindOutNow.jpg","imgNWTK/KeepItSecret.jpg","imgNWTK/FindOutNow.jpg","info","sub","2.84","","53","1","2","0","null","imgNWTK/KeepItSecret.jpg","imgNWTK/FindOutNow.jpg","imgNWTK/KeepItSecret.jpg","90","86","","",""
"10077","","","bandit-task-exp6","64","1665854","0.0-10.0-0.8","male","20","Australia","74946","26009","imgNWTK/KeepItSecret.jpg","imgNWTK/FindOutNow.jpg","imgNWTK/KeepItSecret.jpg","imgNWTK/FindOutNow.jpg","info","sub","2.84","","54","2","1","0","null","imgNWTK/KeepItSecret.jpg","imgNWTK/FindOutNow.jpg","imgNWTK/FindOutNow.jpg","120","87","","",""
"8510","","","bandit-task-exp6","65","1696901","0.0-10.0-0.9","male","20","Australia","74946","26009","imgNWTK/KeepItSecret.jpg","imgNWTK/FindOutNow.jpg","imgNWTK/KeepItSecret.jpg","imgNWTK/FindOutNow.jpg","info","sub","2.84","","55","1","1","113","null","imgNWTK/KeepItSecret.jpg","imgNWTK/FindOutNow.jpg","imgNWTK/KeepItSecret.jpg","120","88","","",""
"17228","","","bandit-task-exp6","66","1736646","0.0-10.0-0.10","male","20","Australia","74946","26009","imgNWTK/KeepItSecret.jpg","imgNWTK/FindOutNow.jpg","imgNWTK/KeepItSecret.jpg","imgNWTK/FindOutNow.jpg","info","sub","2.84","","56","1","1","117","null","imgNWTK/FindOutNow.jpg","imgNWTK/KeepItSecret.jpg","imgNWTK/KeepItSecret.jpg","85","115","","",""
"10589","","","bandit-task-exp6","67","1769371","0.0-10.0-0.11","male","20","Australia","74946","26009","imgNWTK/KeepItSecret.jpg","imgNWTK/FindOutNow.jpg","imgNWTK/KeepItSecret.jpg","imgNWTK/FindOutNow.jpg","info","sub","2.84","","57","1","2","0","null","imgNWTK/FindOutNow.jpg","imgNWTK/KeepItSecret.jpg","imgNWTK/KeepItSecret.jpg","93","118","","",""
"6773","","","bandit-task-exp6","68","1798574","0.0-10.0-0.12","male","20","Australia","74946","26009","imgNWTK/KeepItSecret.jpg","imgNWTK/FindOutNow.jpg","imgNWTK/KeepItSecret.jpg","imgNWTK/FindOutNow.jpg","info","sub","2.84","","58","1","2","0","null","imgNWTK/KeepItSecret.jpg","imgNWTK/FindOutNow.jpg","imgNWTK/KeepItSecret.jpg","110","90","","",""
"9282","","","bandit-task-exp6","69","1830272","0.0-10.0-0.13","male","20","Australia","74946","26009","imgNWTK/KeepItSecret.jpg","imgNWTK/FindOutNow.jpg","imgNWTK/KeepItSecret.jpg","imgNWTK/FindOutNow.jpg","info","sub","2.84","","59","2","2","87","null","imgNWTK/FindOutNow.jpg","imgNWTK/KeepItSecret.jpg","imgNWTK/FindOutNow.jpg","90","89","","",""
"11882","","","bandit-task-exp6","70","1864225","0.0-10.0-0.14","male","20","Australia","74946","26009","imgNWTK/KeepItSecret.jpg","imgNWTK/FindOutNow.jpg","imgNWTK/KeepItSecret.jpg","imgNWTK/FindOutNow.jpg","info","sub","2.84","","60","1","2","0","null","imgNWTK/KeepItSecret.jpg","imgNWTK/FindOutNow.jpg","imgNWTK/KeepItSecret.jpg","101","90","","",""
"7141","<p> Congratulations, you have finished the main part of the experiment. </p><p>Before you finish, we have a few short questions about the options and outcomes you saw in the task.</p>","0","html-button-response","71","1871410","0.0-11.0","male","20","Australia","74946","26009","imgNWTK/KeepItSecret.jpg","imgNWTK/FindOutNow.jpg","imgNWTK/KeepItSecret.jpg","imgNWTK/FindOutNow.jpg","info","sub","2.84","","","","","","","","","","","","","",""
"8482","<p><b>Now, imagine that you clicked on the below button for another 10 trials (this includes <i> BOTH WIN and NO-WIN trials</i>).</p> <img src= 'imgNWTK/KeepItSecret.jpg'></img></br></br> <p><b>Please type the reward (number of points) you would expect to receive on every trial.</br> Click start to begin.</p>","0","html-button-response","72","1879913","0.0-12.0","male","20","Australia","74946","26009","imgNWTK/KeepItSecret.jpg","imgNWTK/FindOutNow.jpg","imgNWTK/KeepItSecret.jpg","imgNWTK/FindOutNow.jpg","info","sub","2.84","","","","","","","","","","","","","",""
"9689.90000000596","","","survey-number","73","1889719","0.0-13.0-0.0","male","20","Australia","74946","26009","imgNWTK/KeepItSecret.jpg","imgNWTK/FindOutNow.jpg","imgNWTK/KeepItSecret.jpg","imgNWTK/FindOutNow.jpg","info","sub","2.84","{""undefined"":""116""}","","","","","","","","","","","","imgNWTK/KeepItSecret.jpg",""
"4340.800000011921","","","survey-number","74","1894085","0.0-13.0-0.1","male","20","Australia","74946","26009","imgNWTK/KeepItSecret.jpg","imgNWTK/FindOutNow.jpg","imgNWTK/KeepItSecret.jpg","imgNWTK/FindOutNow.jpg","info","sub","2.84","{""undefined"":""0""}","","","","","","","","","","","","imgNWTK/KeepItSecret.jpg",""
"3361.199999988079","","","survey-number","75","1897474","0.0-13.0-0.2","male","20","Australia","74946","26009","imgNWTK/KeepItSecret.jpg","imgNWTK/FindOutNow.jpg","imgNWTK/KeepItSecret.jpg","imgNWTK/FindOutNow.jpg","info","sub","2.84","{""undefined"":""120""}","","","","","","","","","","","","imgNWTK/KeepItSecret.jpg",""
"2218","","","survey-number","76","1899721","0.0-13.0-0.3","male","20","Australia","74946","26009","imgNWTK/KeepItSecret.jpg","imgNWTK/FindOutNow.jpg","imgNWTK/KeepItSecret.jpg","imgNWTK/FindOutNow.jpg","info","sub","2.84","{""undefined"":""0""}","","","","","","","","","","","","imgNWTK/KeepItSecret.jpg",""
"1659.6000000238419","","","survey-number","77","1901411","0.0-13.0-0.4","male","20","Australia","74946","26009","imgNWTK/KeepItSecret.jpg","imgNWTK/FindOutNow.jpg","imgNWTK/KeepItSecret.jpg","imgNWTK/FindOutNow.jpg","info","sub","2.84","{""undefined"":""0""}","","","","","","","","","","","","imgNWTK/KeepItSecret.jpg",""
"4816.399999976158","","","survey-number","78","1906241","0.0-13.0-0.5","male","20","Australia","74946","26009","imgNWTK/KeepItSecret.jpg","imgNWTK/FindOutNow.jpg","imgNWTK/KeepItSecret.jpg","imgNWTK/FindOutNow.jpg","info","sub","2.84","{""undefined"":""0""}","","","","","","","","","","","","imgNWTK/KeepItSecret.jpg",""
"3575.5999999940395","","","survey-number","79","1909835","0.0-13.0-0.6","male","20","Australia","74946","26009","imgNWTK/KeepItSecret.jpg","imgNWTK/FindOutNow.jpg","imgNWTK/KeepItSecret.jpg","imgNWTK/FindOutNow.jpg","info","sub","2.84","{""undefined"":""115""}","","","","","","","","","","","","imgNWTK/KeepItSecret.jpg",""
"2916.7000000178814","","","survey-number","80","1912770","0.0-13.0-0.7","male","20","Australia","74946","26009","imgNWTK/KeepItSecret.jpg","imgNWTK/FindOutNow.jpg","imgNWTK/KeepItSecret.jpg","imgNWTK/FindOutNow.jpg","info","sub","2.84","{""undefined"":""113""}","","","","","","","","","","","","imgNWTK/KeepItSecret.jpg",""
"1265.7000000178814","","","survey-number","81","1914053","0.0-13.0-0.8","male","20","Australia","74946","26009","imgNWTK/KeepItSecret.jpg","imgNWTK/FindOutNow.jpg","imgNWTK/KeepItSecret.jpg","imgNWTK/FindOutNow.jpg","info","sub","2.84","{""undefined"":""0""}","","","","","","","","","","","","imgNWTK/KeepItSecret.jpg",""
"4912.5","","","survey-number","82","1918983","0.0-13.0-0.9","male","20","Australia","74946","26009","imgNWTK/KeepItSecret.jpg","imgNWTK/FindOutNow.jpg","imgNWTK/KeepItSecret.jpg","imgNWTK/FindOutNow.jpg","info","sub","2.84","{""undefined"":""121""}","","","","","","","","","","","","imgNWTK/KeepItSecret.jpg",""
"3924","<p><b>Imagine that you clicked on the below button for another 10 trials (this includes <i> both WIN and NO-WIN trials</i>).</p> <img src= 'imgNWTK/FindOutNow.jpg'></img></br></br> <p><b>Please type the reward (number of points) you would expect to receive on every trial.</br> Click start to begin.</p>","0","html-button-response","83","1922927","0.0-14.0","male","20","Australia","74946","26009","imgNWTK/KeepItSecret.jpg","imgNWTK/FindOutNow.jpg","imgNWTK/KeepItSecret.jpg","imgNWTK/FindOutNow.jpg","info","sub","2.84","","","","","","","","","","","","","",""
"2853.2999999821186","","","survey-number","84","1925832","0.0-15.0-0.0","male","20","Australia","74946","26009","imgNWTK/KeepItSecret.jpg","imgNWTK/FindOutNow.jpg","imgNWTK/KeepItSecret.jpg","imgNWTK/FindOutNow.jpg","info","sub","2.84","{""undefined"":""0""}","","","","","","","","","","","","imgNWTK/FindOutNow.jpg",""
"1754.300000011921","","","survey-number","85","1927602","0.0-15.0-0.1","male","20","Australia","74946","26009","imgNWTK/KeepItSecret.jpg","imgNWTK/FindOutNow.jpg","imgNWTK/KeepItSecret.jpg","imgNWTK/FindOutNow.jpg","info","sub","2.84","{""undefined"":""0""}","","","","","","","","","","","","imgNWTK/FindOutNow.jpg",""
"2914.9000000059605","","","survey-number","86","1930531","0.0-15.0-0.2","male","20","Australia","74946","26009","imgNWTK/KeepItSecret.jpg","imgNWTK/FindOutNow.jpg","imgNWTK/KeepItSecret.jpg","imgNWTK/FindOutNow.jpg","info","sub","2.84","{""undefined"":""88""}","","","","","","","","","","","","imgNWTK/FindOutNow.jpg",""
"1869.9000000059605","","","survey-number","87","1932414","0.0-15.0-0.3","male","20","Australia","74946","26009","imgNWTK/KeepItSecret.jpg","imgNWTK/FindOutNow.jpg","imgNWTK/KeepItSecret.jpg","imgNWTK/FindOutNow.jpg","info","sub","2.84","{""undefined"":""0""}","","","","","","","","","","","","imgNWTK/FindOutNow.jpg",""
"7990.600000023842","","","survey-number","88","1940418","0.0-15.0-0.4","male","20","Australia","74946","26009","imgNWTK/KeepItSecret.jpg","imgNWTK/FindOutNow.jpg","imgNWTK/KeepItSecret.jpg","imgNWTK/FindOutNow.jpg","info","sub","2.84","{""undefined"":""94""}","","","","","","","","","","","","imgNWTK/FindOutNow.jpg",""
"3854.399999976158","","","survey-number","89","1944289","0.0-15.0-0.5","male","20","Australia","74946","26009","imgNWTK/KeepItSecret.jpg","imgNWTK/FindOutNow.jpg","imgNWTK/KeepItSecret.jpg","imgNWTK/FindOutNow.jpg","info","sub","2.84","{""undefined"":""80""}","","","","","","","","","","","","imgNWTK/FindOutNow.jpg",""
"1058.0999999940395","","","survey-number","90","1945366","0.0-15.0-0.6","male","20","Australia","74946","26009","imgNWTK/KeepItSecret.jpg","imgNWTK/FindOutNow.jpg","imgNWTK/KeepItSecret.jpg","imgNWTK/FindOutNow.jpg","info","sub","2.84","{""undefined"":""0""}","","","","","","","","","","","","imgNWTK/FindOutNow.jpg",""
"2280.7000000178814","","","survey-number","91","1947667","0.0-15.0-0.7","male","20","Australia","74946","26009","imgNWTK/KeepItSecret.jpg","imgNWTK/FindOutNow.jpg","imgNWTK/KeepItSecret.jpg","imgNWTK/FindOutNow.jpg","info","sub","2.84","{""undefined"":""0""}","","","","","","","","","","","","imgNWTK/FindOutNow.jpg",""
"6854","","","survey-number","92","1954531","0.0-15.0-0.8","male","20","Australia","74946","26009","imgNWTK/KeepItSecret.jpg","imgNWTK/FindOutNow.jpg","imgNWTK/KeepItSecret.jpg","imgNWTK/FindOutNow.jpg","info","sub","2.84","{""undefined"":""92""}","","","","","","","","","","","","imgNWTK/FindOutNow.jpg",""
"2027.800000011921","","","survey-number","93","1956577","0.0-15.0-0.9","male","20","Australia","74946","26009","imgNWTK/KeepItSecret.jpg","imgNWTK/FindOutNow.jpg","imgNWTK/KeepItSecret.jpg","imgNWTK/FindOutNow.jpg","info","sub","2.84","{""undefined"":""0""}","","","","","","","","","","","","imgNWTK/FindOutNow.jpg",""
"17101.79999998212","","","survey-number","94","1973732","0.0-16.0","male","20","Australia","74946","26009","imgNWTK/KeepItSecret.jpg","imgNWTK/FindOutNow.jpg","imgNWTK/KeepItSecret.jpg","imgNWTK/FindOutNow.jpg","info","sub","2.84","{""undefined"":""115""}","","","","","","","","","","","","","imgNWTK/KeepItSecret.jpg"
"4250.5999999940395","","","survey-number","95","1978003","0.0-17.0","male","20","Australia","74946","26009","imgNWTK/KeepItSecret.jpg","imgNWTK/FindOutNow.jpg","imgNWTK/KeepItSecret.jpg","imgNWTK/FindOutNow.jpg","info","sub","2.84","{""undefined"":""85""}","","","","","","","","","","","","","imgNWTK/FindOutNow.jpg"
"108266","<p style=""text-align:left;"">Great! We are almost at the end of the study... (Please do not close the browser window yet.)</p><p> Your final points balance is 2839, which equals to a bonus payment of $2.84. The payment can be collected from MAT721; please email amy.x.li@unsw.edu.au at least 24 hours prior to collection so that this is ready for you.</p><p style=""text-align:left;"">To view the debriefing form, please click <a href=""./imgNWTK/debrief_3205.pdf"" target=""_blank"">here</a> to download a copy.</p><p style=""text-align:left;"">Then, <b>please click the below button</b> to confirm that you have received your debrief and to complete the study. Upon clicking ""Finish!"", your SONA credit will be automatically assigned.</p>","0","html-button-response","96","2086278","0.0-18.0","male","20","Australia","74946","26009","imgNWTK/KeepItSecret.jpg","imgNWTK/FindOutNow.jpg","imgNWTK/KeepItSecret.jpg","imgNWTK/FindOutNow.jpg","info","sub","2.84","","","","","","","","","","","","","",""
