"rt","stimulus","button_pressed","trial_type","trial_index","time_elapsed","internal_node_id","gender","age","language","PID","sona_id","subStim","optStim","stim1","stim2","infoCond","optimCond","bonus","responses","banditTrial","choice","cue","feedback","estimateData","leftOption","rightOption","choiceName","leftInput","rightInput","key_press","postQ","singleEst"
"5345","<p>Thank you for signing up to participate in SONA Study 465! <br> During this study, please focus on the experiment and refrain from activities such as:</p>- <b>Switching to other tabs on your browser (this will be monitored via the experiment)</br> - Using your mobile phone/cell phone</br> - Communicating with others</br></br></b><p>This way, you are helping to provide data that is useful for psychological research. We thank you for your cooperation!</p>","0","html-button-response","0","5347","0.0-0.0","female","20","indonesia","84252","26071","neither","neither","imgNWTK/KeepItSecret.jpg","imgNWTK/FindOutNow.jpg","info","eq","3.53","","","","","","","","","","","","","",""
"1361","<p>Welcome to the experiment!</p><p>You will now read some instructions about the task. Press the 'Next' button to continue. </p>","0","html-button-response","1","6711","0.0-1.0","female","20","indonesia","84252","26071","neither","neither","imgNWTK/KeepItSecret.jpg","imgNWTK/FindOutNow.jpg","info","eq","3.53","","","","","","","","","","","","","",""
"21133","<p> On each trial throughout the experiment you will choose between the options </br><b> Find Out Now </b> and <b> Keep It Secret </b>, as shown below.</p><div><div style= 'float: left; width: 300px; margin: 10px 10px;'><img src= 'imgNWTK/KeepItSecret.jpg'></img></div><div style= 'float: right; width: 300px; margin: 10px 10px;'><img src= 'imgNWTK/FindOutNow.jpg'></img></div></div><br/><br/><br/><br/><br/><br/><br/><br/><br/><br/><br/><p>Each option results in winning points or receiving 0 points.</br>There is a 50% chance of either winning or receiving 0 points.</p><p>You won't receive the outcome until after a <b> 20 second delay</b>. However, selecting the Find Out Now option will allow you to find out about the outcome early, whereas the Keep It Secret option will not. </p>","0","html-button-response","2","27846","0.0-2.0-0.0","female","20","indonesia","84252","26071","neither","neither","imgNWTK/KeepItSecret.jpg","imgNWTK/FindOutNow.jpg","info","eq","3.53","","","","","","","","","","","","","",""
"32496","<img src= 'cues/Experiment6.png'></img><p>As seen above, when choosing the <b>'Find Out Now'</b> option, you will receive either a happy face or sad face.</br>The happy face means you will win points after the delay, whereas the sad face means you will receive 0 points.</br></p><p> When choosing the <b> 'Keep it Secret' </b> option you will receive a confused face.</br> This face appears regardless of whether you are going to win points or not. </p>In short, choosing 'Find Out Now' allows you to find out the outcome before you experience it (after the delay).</br></br>","0","html-button-response","3","60344","0.0-2.0-1.0","female","20","indonesia","84252","26071","neither","neither","imgNWTK/KeepItSecret.jpg","imgNWTK/FindOutNow.jpg","info","eq","3.53","","","","","","","","","","","","","",""
"9718","<img src= 'cues/winTrials_info.png' width = '1200'></img><p>To reiterate, 50% of the outcomes of each option will be WIN TRIALS, and the other 50% will be NO-WIN TRIALS.","0","html-button-response","4","70064","0.0-2.0-2.0","female","20","indonesia","84252","26071","neither","neither","imgNWTK/KeepItSecret.jpg","imgNWTK/FindOutNow.jpg","info","eq","3.53","","","","","","","","","","","","","",""
"13905","<p> There will be <b>four blocks</b> in the experiment.</br>You will be given a short 15 second break between each block.</p><p><b>The points and the options will remain the same between the blocks.</b></p>The blocks are there just to give you a small break.</br></br><p>The points you earn in the task are also equal to <b> actual money</b>.</br> <b>1000 points is equal to $1.</b></p><p>This is the rate you will be paid at the experiment's end.","0","html-button-response","5","83970","0.0-2.0-3.0","female","20","indonesia","84252","26071","neither","neither","imgNWTK/KeepItSecret.jpg","imgNWTK/FindOutNow.jpg","info","eq","3.53","","","","","","","","","","","","","",""
"32500","","","survey-multi-choice","6","116477","0.0-2.0-4.0","female","20","indonesia","84252","26071","neither","neither","imgNWTK/KeepItSecret.jpg","imgNWTK/FindOutNow.jpg","info","eq","3.53","{""Q0"":""20 Seconds"",""Q1"":""True"",""Q2"":""Differently"",""Q3"":""True""}","","","","","","","","","","","","",""
"2914","Unfortunately, at least one of your answers was incorrect. Let's read the instructions again.<p> ","0","html-button-response","7","119393","0.0-2.0-5.0-0.0","female","20","indonesia","84252","26071","neither","neither","imgNWTK/KeepItSecret.jpg","imgNWTK/FindOutNow.jpg","info","eq","3.53","","","","","","","","","","","","","",""
"1603","<p> On each trial throughout the experiment you will choose between the options </br><b> Find Out Now </b> and <b> Keep It Secret </b>, as shown below.</p><div><div style= 'float: left; width: 300px; margin: 10px 10px;'><img src= 'imgNWTK/KeepItSecret.jpg'></img></div><div style= 'float: right; width: 300px; margin: 10px 10px;'><img src= 'imgNWTK/FindOutNow.jpg'></img></div></div><br/><br/><br/><br/><br/><br/><br/><br/><br/><br/><br/><p>Each option results in winning points or receiving 0 points.</br>There is a 50% chance of either winning or receiving 0 points.</p><p>You won't receive the outcome until after a <b> 20 second delay</b>. However, selecting the Find Out Now option will allow you to find out about the outcome early, whereas the Keep It Secret option will not. </p>","0","html-button-response","8","120997","0.0-2.1-0.1","female","20","indonesia","84252","26071","neither","neither","imgNWTK/KeepItSecret.jpg","imgNWTK/FindOutNow.jpg","info","eq","3.53","","","","","","","","","","","","","",""
"2015","<img src= 'cues/Experiment6.png'></img><p>As seen above, when choosing the <b>'Find Out Now'</b> option, you will receive either a happy face or sad face.</br>The happy face means you will win points after the delay, whereas the sad face means you will receive 0 points.</br></p><p> When choosing the <b> 'Keep it Secret' </b> option you will receive a confused face.</br> This face appears regardless of whether you are going to win points or not. </p>In short, choosing 'Find Out Now' allows you to find out the outcome before you experience it (after the delay).</br></br>","0","html-button-response","9","123014","0.0-2.1-1.1","female","20","indonesia","84252","26071","neither","neither","imgNWTK/KeepItSecret.jpg","imgNWTK/FindOutNow.jpg","info","eq","3.53","","","","","","","","","","","","","",""
"1614","<img src= 'cues/winTrials_info.png' width = '1200'></img><p>To reiterate, 50% of the outcomes of each option will be WIN TRIALS, and the other 50% will be NO-WIN TRIALS.","0","html-button-response","10","124630","0.0-2.1-2.1","female","20","indonesia","84252","26071","neither","neither","imgNWTK/KeepItSecret.jpg","imgNWTK/FindOutNow.jpg","info","eq","3.53","","","","","","","","","","","","","",""
"1419","<p> There will be <b>four blocks</b> in the experiment.</br>You will be given a short 15 second break between each block.</p><p><b>The points and the options will remain the same between the blocks.</b></p>The blocks are there just to give you a small break.</br></br><p>The points you earn in the task are also equal to <b> actual money</b>.</br> <b>1000 points is equal to $1.</b></p><p>This is the rate you will be paid at the experiment's end.","0","html-button-response","11","126051","0.0-2.1-3.1","female","20","indonesia","84252","26071","neither","neither","imgNWTK/KeepItSecret.jpg","imgNWTK/FindOutNow.jpg","info","eq","3.53","","","","","","","","","","","","","",""
"9764","","","survey-multi-choice","12","135826","0.0-2.1-4.1","female","20","indonesia","84252","26071","neither","neither","imgNWTK/KeepItSecret.jpg","imgNWTK/FindOutNow.jpg","info","eq","3.53","{""Q0"":""20 Seconds"",""Q1"":""True"",""Q2"":""Equally"",""Q3"":""True""}","","","","","","","","","","","","",""
"3236","<p> Well done, all your answers were correct! <br> The experiment is about to start now. <br/> Click start to continue, or email your researcher <b>(amy.x.li@unsw.edu.au)</b> if you have any questions before starting.","0","html-button-response","13","139065","0.0-3.0","female","20","indonesia","84252","26071","neither","neither","imgNWTK/KeepItSecret.jpg","imgNWTK/FindOutNow.jpg","info","eq","3.53","","","","","","","","","","","","","",""
"2338","","","bandit-task-exp6","14","164003","0.0-4.0-0.0","female","20","indonesia","84252","26071","neither","neither","imgNWTK/KeepItSecret.jpg","imgNWTK/FindOutNow.jpg","info","eq","3.53","","1","2","2","109","null","imgNWTK/FindOutNow.jpg","imgNWTK/KeepItSecret.jpg","imgNWTK/FindOutNow.jpg","NaN","NaN","","",""
"3952","","","bandit-task-exp6","15","190526","0.0-4.0-0.1","female","20","indonesia","84252","26071","neither","neither","imgNWTK/KeepItSecret.jpg","imgNWTK/FindOutNow.jpg","info","eq","3.53","","2","2","1","0","null","imgNWTK/FindOutNow.jpg","imgNWTK/KeepItSecret.jpg","imgNWTK/FindOutNow.jpg","NaN","NaN","","",""
"3703","","","bandit-task-exp6","16","220704","0.0-4.0-0.2","female","20","indonesia","84252","26071","neither","neither","imgNWTK/KeepItSecret.jpg","imgNWTK/FindOutNow.jpg","info","eq","3.53","","3","1","1","92","null","imgNWTK/FindOutNow.jpg","imgNWTK/KeepItSecret.jpg","imgNWTK/KeepItSecret.jpg","NaN","NaN","","",""
"3109","","","bandit-task-exp6","17","248120","0.0-4.0-0.3","female","20","indonesia","84252","26071","neither","neither","imgNWTK/KeepItSecret.jpg","imgNWTK/FindOutNow.jpg","info","eq","3.53","","4","2","1","0","null","imgNWTK/FindOutNow.jpg","imgNWTK/KeepItSecret.jpg","imgNWTK/FindOutNow.jpg","NaN","NaN","","",""
"2743","","","bandit-task-exp6","18","274080","0.0-4.0-0.4","female","20","indonesia","84252","26071","neither","neither","imgNWTK/KeepItSecret.jpg","imgNWTK/FindOutNow.jpg","info","eq","3.53","","5","2","2","105","null","imgNWTK/FindOutNow.jpg","imgNWTK/KeepItSecret.jpg","imgNWTK/FindOutNow.jpg","NaN","NaN","","",""
"2798","","","bandit-task-exp6","19","301727","0.0-4.0-0.5","female","20","indonesia","84252","26071","neither","neither","imgNWTK/KeepItSecret.jpg","imgNWTK/FindOutNow.jpg","info","eq","3.53","","6","2","2","100","null","imgNWTK/FindOutNow.jpg","imgNWTK/KeepItSecret.jpg","imgNWTK/FindOutNow.jpg","NaN","NaN","","",""
"2478","","","bandit-task-exp6","20","329586","0.0-4.0-0.6","female","20","indonesia","84252","26071","neither","neither","imgNWTK/KeepItSecret.jpg","imgNWTK/FindOutNow.jpg","info","eq","3.53","","7","2","2","96","null","imgNWTK/FindOutNow.jpg","imgNWTK/KeepItSecret.jpg","imgNWTK/FindOutNow.jpg","NaN","NaN","","",""
"1460","","","bandit-task-exp6","21","359748","0.0-4.0-0.7","female","20","indonesia","84252","26071","neither","neither","imgNWTK/KeepItSecret.jpg","imgNWTK/FindOutNow.jpg","info","eq","3.53","","8","1","2","0","null","imgNWTK/KeepItSecret.jpg","imgNWTK/FindOutNow.jpg","imgNWTK/KeepItSecret.jpg","NaN","NaN","","",""
"1022","","","bandit-task-exp6","22","386121","0.0-4.0-0.8","female","20","indonesia","84252","26071","neither","neither","imgNWTK/KeepItSecret.jpg","imgNWTK/FindOutNow.jpg","info","eq","3.53","","9","2","2","100","null","imgNWTK/FindOutNow.jpg","imgNWTK/KeepItSecret.jpg","imgNWTK/FindOutNow.jpg","NaN","NaN","","",""
"1005","","","bandit-task-exp6","23","417223","0.0-4.0-0.9","female","20","indonesia","84252","26071","neither","neither","imgNWTK/KeepItSecret.jpg","imgNWTK/FindOutNow.jpg","info","eq","3.53","","10","1","2","0","null","imgNWTK/KeepItSecret.jpg","imgNWTK/FindOutNow.jpg","imgNWTK/KeepItSecret.jpg","NaN","NaN","","",""
"6207","","","bandit-task-exp6","24","461993","0.0-4.0-0.10","female","20","indonesia","84252","26071","neither","neither","imgNWTK/KeepItSecret.jpg","imgNWTK/FindOutNow.jpg","info","eq","3.53","","11","2","2","104","null","imgNWTK/FindOutNow.jpg","imgNWTK/KeepItSecret.jpg","imgNWTK/FindOutNow.jpg","NaN","NaN","","",""
"1094","","","bandit-task-exp6","25","488200","0.0-4.0-0.11","female","20","indonesia","84252","26071","neither","neither","imgNWTK/KeepItSecret.jpg","imgNWTK/FindOutNow.jpg","info","eq","3.53","","12","2","2","99","null","imgNWTK/FindOutNow.jpg","imgNWTK/KeepItSecret.jpg","imgNWTK/FindOutNow.jpg","NaN","NaN","","",""
"2347","","","bandit-task-exp6","26","515644","0.0-4.0-0.12","female","20","indonesia","84252","26071","neither","neither","imgNWTK/KeepItSecret.jpg","imgNWTK/FindOutNow.jpg","info","eq","3.53","","13","1","2","0","null","imgNWTK/KeepItSecret.jpg","imgNWTK/FindOutNow.jpg","imgNWTK/KeepItSecret.jpg","NaN","NaN","","",""
"1024","","","bandit-task-exp6","27","539383","0.0-4.0-0.13","female","20","indonesia","84252","26071","neither","neither","imgNWTK/KeepItSecret.jpg","imgNWTK/FindOutNow.jpg","info","eq","3.53","","14","2","1","0","null","imgNWTK/FindOutNow.jpg","imgNWTK/KeepItSecret.jpg","imgNWTK/FindOutNow.jpg","NaN","NaN","","",""
"1101","","","bandit-task-exp6","28","563643","0.0-4.0-0.14","female","20","indonesia","84252","26071","neither","neither","imgNWTK/KeepItSecret.jpg","imgNWTK/FindOutNow.jpg","info","eq","3.53","","15","2","2","91","null","imgNWTK/FindOutNow.jpg","imgNWTK/KeepItSecret.jpg","imgNWTK/FindOutNow.jpg","NaN","NaN","","",""
"null","<p><b> Congratulations, you have finished this block. </b> </p><p>Please take a short break before moving onto the next block.</p><p>The next block will start after a 15 second break.</p><b>Remember, the point rewards are the same between blocks","","html-keyboard-response","29","578651","0.0-5.0","female","20","indonesia","84252","26071","neither","neither","imgNWTK/KeepItSecret.jpg","imgNWTK/FindOutNow.jpg","info","eq","3.53","","","","","","","","","","","","null","",""
"1902","","","bandit-task-exp6","30","613085","0.0-6.0-0.0","female","20","indonesia","84252","26071","neither","neither","imgNWTK/KeepItSecret.jpg","imgNWTK/FindOutNow.jpg","info","eq","3.53","","16","2","2","109","null","imgNWTK/FindOutNow.jpg","imgNWTK/KeepItSecret.jpg","imgNWTK/FindOutNow.jpg","NaN","NaN","","",""
"1168","","","bandit-task-exp6","31","636892","0.0-6.0-0.1","female","20","indonesia","84252","26071","neither","neither","imgNWTK/KeepItSecret.jpg","imgNWTK/FindOutNow.jpg","info","eq","3.53","","17","1","1","105","null","imgNWTK/KeepItSecret.jpg","imgNWTK/FindOutNow.jpg","imgNWTK/KeepItSecret.jpg","NaN","NaN","","",""
"1728","","","bandit-task-exp6","32","661339","0.0-6.0-0.2","female","20","indonesia","84252","26071","neither","neither","imgNWTK/KeepItSecret.jpg","imgNWTK/FindOutNow.jpg","info","eq","3.53","","18","2","2","107","null","imgNWTK/FindOutNow.jpg","imgNWTK/KeepItSecret.jpg","imgNWTK/FindOutNow.jpg","NaN","NaN","","",""
"7030","","","bandit-task-exp6","33","694683","0.0-6.0-0.3","female","20","indonesia","84252","26071","neither","neither","imgNWTK/KeepItSecret.jpg","imgNWTK/FindOutNow.jpg","info","eq","3.53","","19","1","1","109","null","imgNWTK/FindOutNow.jpg","imgNWTK/KeepItSecret.jpg","imgNWTK/KeepItSecret.jpg","NaN","NaN","","",""
"2436","","","bandit-task-exp6","34","719359","0.0-6.0-0.4","female","20","indonesia","84252","26071","neither","neither","imgNWTK/KeepItSecret.jpg","imgNWTK/FindOutNow.jpg","info","eq","3.53","","20","2","2","91","null","imgNWTK/KeepItSecret.jpg","imgNWTK/FindOutNow.jpg","imgNWTK/FindOutNow.jpg","NaN","NaN","","",""
"2305","","","bandit-task-exp6","35","745160","0.0-6.0-0.5","female","20","indonesia","84252","26071","neither","neither","imgNWTK/KeepItSecret.jpg","imgNWTK/FindOutNow.jpg","info","eq","3.53","","21","1","2","0","null","imgNWTK/KeepItSecret.jpg","imgNWTK/FindOutNow.jpg","imgNWTK/KeepItSecret.jpg","NaN","NaN","","",""
"1498","","","bandit-task-exp6","36","770186","0.0-6.0-0.6","female","20","indonesia","84252","26071","neither","neither","imgNWTK/KeepItSecret.jpg","imgNWTK/FindOutNow.jpg","info","eq","3.53","","22","2","2","94","null","imgNWTK/FindOutNow.jpg","imgNWTK/KeepItSecret.jpg","imgNWTK/FindOutNow.jpg","NaN","NaN","","",""
"2518","","","bandit-task-exp6","37","799671","0.0-6.0-0.7","female","20","indonesia","84252","26071","neither","neither","imgNWTK/KeepItSecret.jpg","imgNWTK/FindOutNow.jpg","info","eq","3.53","","23","2","2","104","null","imgNWTK/KeepItSecret.jpg","imgNWTK/FindOutNow.jpg","imgNWTK/FindOutNow.jpg","NaN","NaN","","",""
"1990","","","bandit-task-exp6","38","833202","0.0-6.0-0.8","female","20","indonesia","84252","26071","neither","neither","imgNWTK/KeepItSecret.jpg","imgNWTK/FindOutNow.jpg","info","eq","3.53","","24","1","2","0","null","imgNWTK/KeepItSecret.jpg","imgNWTK/FindOutNow.jpg","imgNWTK/KeepItSecret.jpg","NaN","NaN","","",""
"2122","","","bandit-task-exp6","39","870623","0.0-6.0-0.9","female","20","indonesia","84252","26071","neither","neither","imgNWTK/KeepItSecret.jpg","imgNWTK/FindOutNow.jpg","info","eq","3.53","","25","2","1","0","null","imgNWTK/KeepItSecret.jpg","imgNWTK/FindOutNow.jpg","imgNWTK/FindOutNow.jpg","NaN","NaN","","",""
"2081","","","bandit-task-exp6","40","900818","0.0-6.0-0.10","female","20","indonesia","84252","26071","neither","neither","imgNWTK/KeepItSecret.jpg","imgNWTK/FindOutNow.jpg","info","eq","3.53","","26","2","2","108","null","imgNWTK/KeepItSecret.jpg","imgNWTK/FindOutNow.jpg","imgNWTK/FindOutNow.jpg","NaN","NaN","","",""
"2621","","","bandit-task-exp6","41","929254","0.0-6.0-0.11","female","20","indonesia","84252","26071","neither","neither","imgNWTK/KeepItSecret.jpg","imgNWTK/FindOutNow.jpg","info","eq","3.53","","27","2","2","98","null","imgNWTK/KeepItSecret.jpg","imgNWTK/FindOutNow.jpg","imgNWTK/FindOutNow.jpg","NaN","NaN","","",""
"1683","","","bandit-task-exp6","42","956262","0.0-6.0-0.12","female","20","indonesia","84252","26071","neither","neither","imgNWTK/KeepItSecret.jpg","imgNWTK/FindOutNow.jpg","info","eq","3.53","","28","2","1","0","null","imgNWTK/KeepItSecret.jpg","imgNWTK/FindOutNow.jpg","imgNWTK/FindOutNow.jpg","NaN","NaN","","",""
"1095","","","bandit-task-exp6","43","983364","0.0-6.0-0.13","female","20","indonesia","84252","26071","neither","neither","imgNWTK/KeepItSecret.jpg","imgNWTK/FindOutNow.jpg","info","eq","3.53","","29","2","2","100","null","imgNWTK/KeepItSecret.jpg","imgNWTK/FindOutNow.jpg","imgNWTK/FindOutNow.jpg","NaN","NaN","","",""
"1498","","","bandit-task-exp6","44","1010159","0.0-6.0-0.14","female","20","indonesia","84252","26071","neither","neither","imgNWTK/KeepItSecret.jpg","imgNWTK/FindOutNow.jpg","info","eq","3.53","","30","1","2","0","null","imgNWTK/FindOutNow.jpg","imgNWTK/KeepItSecret.jpg","imgNWTK/KeepItSecret.jpg","NaN","NaN","","",""
"null","<p><b> Congratulations, you have finished this block. </b> </p><p>Please take a short break before moving onto the next block.</p><p>The next block will start after a 15 second break.</p><b>Remember, the point rewards are the same between blocks","","html-keyboard-response","45","1025165","0.0-7.0","female","20","indonesia","84252","26071","neither","neither","imgNWTK/KeepItSecret.jpg","imgNWTK/FindOutNow.jpg","info","eq","3.53","","","","","","","","","","","","null","",""
"10202","","","bandit-task-exp6","46","1057446","0.0-8.0-0.0","female","20","indonesia","84252","26071","neither","neither","imgNWTK/KeepItSecret.jpg","imgNWTK/FindOutNow.jpg","info","eq","3.53","","31","2","1","0","null","imgNWTK/KeepItSecret.jpg","imgNWTK/FindOutNow.jpg","imgNWTK/FindOutNow.jpg","NaN","NaN","","",""
"1839","","","bandit-task-exp6","47","1081759","0.0-8.0-0.1","female","20","indonesia","84252","26071","neither","neither","imgNWTK/KeepItSecret.jpg","imgNWTK/FindOutNow.jpg","info","eq","3.53","","32","2","2","108","null","imgNWTK/FindOutNow.jpg","imgNWTK/KeepItSecret.jpg","imgNWTK/FindOutNow.jpg","NaN","NaN","","",""
"5562","","","bandit-task-exp6","48","1115054","0.0-8.0-0.2","female","20","indonesia","84252","26071","neither","neither","imgNWTK/KeepItSecret.jpg","imgNWTK/FindOutNow.jpg","info","eq","3.53","","33","2","2","92","null","imgNWTK/KeepItSecret.jpg","imgNWTK/FindOutNow.jpg","imgNWTK/FindOutNow.jpg","NaN","NaN","","",""
"1152","","","bandit-task-exp6","49","1139621","0.0-8.0-0.3","female","20","indonesia","84252","26071","neither","neither","imgNWTK/KeepItSecret.jpg","imgNWTK/FindOutNow.jpg","info","eq","3.53","","34","1","1","104","null","imgNWTK/KeepItSecret.jpg","imgNWTK/FindOutNow.jpg","imgNWTK/KeepItSecret.jpg","NaN","NaN","","",""
"2460","","","bandit-task-exp6","50","1164900","0.0-8.0-0.4","female","20","indonesia","84252","26071","neither","neither","imgNWTK/KeepItSecret.jpg","imgNWTK/FindOutNow.jpg","info","eq","3.53","","35","2","2","104","null","imgNWTK/FindOutNow.jpg","imgNWTK/KeepItSecret.jpg","imgNWTK/FindOutNow.jpg","NaN","NaN","","",""
"2064","","","bandit-task-exp6","51","1188961","0.0-8.0-0.5","female","20","indonesia","84252","26071","neither","neither","imgNWTK/KeepItSecret.jpg","imgNWTK/FindOutNow.jpg","info","eq","3.53","","36","2","1","0","null","imgNWTK/FindOutNow.jpg","imgNWTK/KeepItSecret.jpg","imgNWTK/FindOutNow.jpg","NaN","NaN","","",""
"1483","","","bandit-task-exp6","52","1212661","0.0-8.0-0.6","female","20","indonesia","84252","26071","neither","neither","imgNWTK/KeepItSecret.jpg","imgNWTK/FindOutNow.jpg","info","eq","3.53","","37","2","1","0","null","imgNWTK/FindOutNow.jpg","imgNWTK/KeepItSecret.jpg","imgNWTK/FindOutNow.jpg","NaN","NaN","","",""
"1433","","","bandit-task-exp6","53","1236013","0.0-8.0-0.7","female","20","indonesia","84252","26071","neither","neither","imgNWTK/KeepItSecret.jpg","imgNWTK/FindOutNow.jpg","info","eq","3.53","","38","2","1","0","null","imgNWTK/KeepItSecret.jpg","imgNWTK/FindOutNow.jpg","imgNWTK/FindOutNow.jpg","NaN","NaN","","",""
"1049","","","bandit-task-exp6","54","1261087","0.0-8.0-0.8","female","20","indonesia","84252","26071","neither","neither","imgNWTK/KeepItSecret.jpg","imgNWTK/FindOutNow.jpg","info","eq","3.53","","39","2","2","102","null","imgNWTK/FindOutNow.jpg","imgNWTK/KeepItSecret.jpg","imgNWTK/FindOutNow.jpg","NaN","NaN","","",""
"1970","","","bandit-task-exp6","55","1291344","0.0-8.0-0.9","female","20","indonesia","84252","26071","neither","neither","imgNWTK/KeepItSecret.jpg","imgNWTK/FindOutNow.jpg","info","eq","3.53","","40","2","2","92","null","imgNWTK/FindOutNow.jpg","imgNWTK/KeepItSecret.jpg","imgNWTK/FindOutNow.jpg","NaN","NaN","","",""
"2554","","","bandit-task-exp6","56","1324948","0.0-8.0-0.10","female","20","indonesia","84252","26071","neither","neither","imgNWTK/KeepItSecret.jpg","imgNWTK/FindOutNow.jpg","info","eq","3.53","","41","1","1","107","null","imgNWTK/FindOutNow.jpg","imgNWTK/KeepItSecret.jpg","imgNWTK/KeepItSecret.jpg","NaN","NaN","","",""
"2097","","","bandit-task-exp6","57","1350354","0.0-8.0-0.11","female","20","indonesia","84252","26071","neither","neither","imgNWTK/KeepItSecret.jpg","imgNWTK/FindOutNow.jpg","info","eq","3.53","","42","2","2","107","null","imgNWTK/FindOutNow.jpg","imgNWTK/KeepItSecret.jpg","imgNWTK/FindOutNow.jpg","NaN","NaN","","",""
"2598","","","bandit-task-exp6","58","1376220","0.0-8.0-0.12","female","20","indonesia","84252","26071","neither","neither","imgNWTK/KeepItSecret.jpg","imgNWTK/FindOutNow.jpg","info","eq","3.53","","43","2","1","0","null","imgNWTK/FindOutNow.jpg","imgNWTK/KeepItSecret.jpg","imgNWTK/FindOutNow.jpg","NaN","NaN","","",""
"1249","","","bandit-task-exp6","59","1400352","0.0-8.0-0.13","female","20","indonesia","84252","26071","neither","neither","imgNWTK/KeepItSecret.jpg","imgNWTK/FindOutNow.jpg","info","eq","3.53","","44","2","2","91","null","imgNWTK/KeepItSecret.jpg","imgNWTK/FindOutNow.jpg","imgNWTK/FindOutNow.jpg","NaN","NaN","","",""
"2913","","","bandit-task-exp6","60","1425937","0.0-8.0-0.14","female","20","indonesia","84252","26071","neither","neither","imgNWTK/KeepItSecret.jpg","imgNWTK/FindOutNow.jpg","info","eq","3.53","","45","2","2","97","null","imgNWTK/KeepItSecret.jpg","imgNWTK/FindOutNow.jpg","imgNWTK/FindOutNow.jpg","NaN","NaN","","",""
"null","<p><b> Congratulations, you have finished this block. </b> </p><p>Please take a short break before moving onto the next block.</p><p>The next block will start after a 15 second break.</p><b>Remember, the point rewards are the same between blocks","","html-keyboard-response","61","1441013","0.0-9.0","female","20","indonesia","84252","26071","neither","neither","imgNWTK/KeepItSecret.jpg","imgNWTK/FindOutNow.jpg","info","eq","3.53","","","","","","","","","","","","null","",""
"26964","","","bandit-task-exp6","62","1490890","0.0-10.0-0.0","female","20","indonesia","84252","26071","neither","neither","imgNWTK/KeepItSecret.jpg","imgNWTK/FindOutNow.jpg","info","eq","3.53","","46","2","1","0","null","imgNWTK/KeepItSecret.jpg","imgNWTK/FindOutNow.jpg","imgNWTK/FindOutNow.jpg","100","95","","",""
"8313","","","bandit-task-exp6","63","1522574","0.0-10.0-0.1","female","20","indonesia","84252","26071","neither","neither","imgNWTK/KeepItSecret.jpg","imgNWTK/FindOutNow.jpg","info","eq","3.53","","47","2","1","0","null","imgNWTK/FindOutNow.jpg","imgNWTK/KeepItSecret.jpg","imgNWTK/FindOutNow.jpg","92","0","","",""
"8045","","","bandit-task-exp6","64","1556310","0.0-10.0-0.2","female","20","indonesia","84252","26071","neither","neither","imgNWTK/KeepItSecret.jpg","imgNWTK/FindOutNow.jpg","info","eq","3.53","","48","2","2","109","null","imgNWTK/KeepItSecret.jpg","imgNWTK/FindOutNow.jpg","imgNWTK/FindOutNow.jpg","0","0","","",""
"8624","","","bandit-task-exp6","65","1587236","0.0-10.0-0.3","female","20","indonesia","84252","26071","neither","neither","imgNWTK/KeepItSecret.jpg","imgNWTK/FindOutNow.jpg","info","eq","3.53","","49","2","1","0","null","imgNWTK/FindOutNow.jpg","imgNWTK/KeepItSecret.jpg","imgNWTK/FindOutNow.jpg","100","100","","",""
"5602","","","bandit-task-exp6","66","1616180","0.0-10.0-0.4","female","20","indonesia","84252","26071","neither","neither","imgNWTK/KeepItSecret.jpg","imgNWTK/FindOutNow.jpg","info","eq","3.53","","50","2","2","91","null","imgNWTK/FindOutNow.jpg","imgNWTK/KeepItSecret.jpg","imgNWTK/FindOutNow.jpg","0","0","","",""
"7836","","","bandit-task-exp6","67","1646824","0.0-10.0-0.5","female","20","indonesia","84252","26071","neither","neither","imgNWTK/KeepItSecret.jpg","imgNWTK/FindOutNow.jpg","info","eq","3.53","","51","1","1","109","null","imgNWTK/KeepItSecret.jpg","imgNWTK/FindOutNow.jpg","imgNWTK/KeepItSecret.jpg","0","0","","",""
"5752","","","bandit-task-exp6","68","1677543","0.0-10.0-0.6","female","20","indonesia","84252","26071","neither","neither","imgNWTK/KeepItSecret.jpg","imgNWTK/FindOutNow.jpg","info","eq","3.53","","52","2","2","90","null","imgNWTK/FindOutNow.jpg","imgNWTK/KeepItSecret.jpg","imgNWTK/FindOutNow.jpg","0","0","","",""
"5598","","","bandit-task-exp6","69","1706410","0.0-10.0-0.7","female","20","indonesia","84252","26071","neither","neither","imgNWTK/KeepItSecret.jpg","imgNWTK/FindOutNow.jpg","info","eq","3.53","","53","2","1","0","null","imgNWTK/KeepItSecret.jpg","imgNWTK/FindOutNow.jpg","imgNWTK/FindOutNow.jpg","0","0","","",""
"5001","","","bandit-task-exp6","70","1736589","0.0-10.0-0.8","female","20","indonesia","84252","26071","neither","neither","imgNWTK/KeepItSecret.jpg","imgNWTK/FindOutNow.jpg","info","eq","3.53","","54","1","2","0","null","imgNWTK/KeepItSecret.jpg","imgNWTK/FindOutNow.jpg","imgNWTK/KeepItSecret.jpg","0","0","","",""
"5013","","","bandit-task-exp6","71","1765741","0.0-10.0-0.9","female","20","indonesia","84252","26071","neither","neither","imgNWTK/KeepItSecret.jpg","imgNWTK/FindOutNow.jpg","info","eq","3.53","","55","2","1","0","null","imgNWTK/FindOutNow.jpg","imgNWTK/KeepItSecret.jpg","imgNWTK/FindOutNow.jpg","0","0","","",""
"4799","","","bandit-task-exp6","72","1796078","0.0-10.0-0.10","female","20","indonesia","84252","26071","neither","neither","imgNWTK/KeepItSecret.jpg","imgNWTK/FindOutNow.jpg","info","eq","3.53","","56","2","1","0","null","imgNWTK/KeepItSecret.jpg","imgNWTK/FindOutNow.jpg","imgNWTK/FindOutNow.jpg","0","0","","",""
"6533","","","bandit-task-exp6","73","1826330","0.0-10.0-0.11","female","20","indonesia","84252","26071","neither","neither","imgNWTK/KeepItSecret.jpg","imgNWTK/FindOutNow.jpg","info","eq","3.53","","57","2","2","108","null","imgNWTK/FindOutNow.jpg","imgNWTK/KeepItSecret.jpg","imgNWTK/FindOutNow.jpg","0","0","","",""
"15696","","","bandit-task-exp6","74","1864375","0.0-10.0-0.12","female","20","indonesia","84252","26071","neither","neither","imgNWTK/KeepItSecret.jpg","imgNWTK/FindOutNow.jpg","info","eq","3.53","","58","2","1","0","null","imgNWTK/FindOutNow.jpg","imgNWTK/KeepItSecret.jpg","imgNWTK/FindOutNow.jpg","100","100","","",""
"6158","","","bandit-task-exp6","75","1894090","0.0-10.0-0.13","female","20","indonesia","84252","26071","neither","neither","imgNWTK/KeepItSecret.jpg","imgNWTK/FindOutNow.jpg","info","eq","3.53","","59","2","1","0","null","imgNWTK/KeepItSecret.jpg","imgNWTK/FindOutNow.jpg","imgNWTK/FindOutNow.jpg","90","90","","",""
"4888","","","bandit-task-exp6","76","1922606","0.0-10.0-0.14","female","20","indonesia","84252","26071","neither","neither","imgNWTK/KeepItSecret.jpg","imgNWTK/FindOutNow.jpg","info","eq","3.53","","60","2","2","98","null","imgNWTK/FindOutNow.jpg","imgNWTK/KeepItSecret.jpg","imgNWTK/FindOutNow.jpg","90","90","","",""
"4238","<p> Congratulations, you have finished the main part of the experiment. </p><p>Before you finish, we have a few short questions about the options and outcomes you saw in the task.</p>","0","html-button-response","77","1926847","0.0-11.0","female","20","indonesia","84252","26071","neither","neither","imgNWTK/KeepItSecret.jpg","imgNWTK/FindOutNow.jpg","info","eq","3.53","","","","","","","","","","","","","",""
"9336","<p><b>Now, imagine that you clicked on the below button for another 10 trials (this includes <i> BOTH WIN and NO-WIN trials</i>).</p> <img src= 'imgNWTK/KeepItSecret.jpg'></img></br></br> <p><b>Please type the reward (number of points) you would expect to receive on every trial.</br> Click start to begin.</p>","0","html-button-response","78","1936185","0.0-12.0","female","20","indonesia","84252","26071","neither","neither","imgNWTK/KeepItSecret.jpg","imgNWTK/FindOutNow.jpg","info","eq","3.53","","","","","","","","","","","","","",""
"7276","","","survey-number","79","1943467","0.0-13.0-0.0","female","20","indonesia","84252","26071","neither","neither","imgNWTK/KeepItSecret.jpg","imgNWTK/FindOutNow.jpg","info","eq","3.53","{""undefined"":""90""}","","","","","","","","","","","","imgNWTK/KeepItSecret.jpg",""
"7282.5","","","survey-number","80","1950753","0.0-13.0-0.1","female","20","indonesia","84252","26071","neither","neither","imgNWTK/KeepItSecret.jpg","imgNWTK/FindOutNow.jpg","info","eq","3.53","{""undefined"":""98""}","","","","","","","","","","","","imgNWTK/KeepItSecret.jpg",""
"6036.29999999702","","","survey-number","81","1956792","0.0-13.0-0.2","female","20","indonesia","84252","26071","neither","neither","imgNWTK/KeepItSecret.jpg","imgNWTK/FindOutNow.jpg","info","eq","3.53","{""undefined"":""107""}","","","","","","","","","","","","imgNWTK/KeepItSecret.jpg",""
"3843.2000000029802","","","survey-number","82","1960639","0.0-13.0-0.3","female","20","indonesia","84252","26071","neither","neither","imgNWTK/KeepItSecret.jpg","imgNWTK/FindOutNow.jpg","info","eq","3.53","{""undefined"":""0""}","","","","","","","","","","","","imgNWTK/KeepItSecret.jpg",""
"6088.80000000447","","","survey-number","83","1966731","0.0-13.0-0.4","female","20","indonesia","84252","26071","neither","neither","imgNWTK/KeepItSecret.jpg","imgNWTK/FindOutNow.jpg","info","eq","3.53","{""undefined"":""98""}","","","","","","","","","","","","imgNWTK/KeepItSecret.jpg",""
"7657.19999999553","","","survey-number","84","1974393","0.0-13.0-0.5","female","20","indonesia","84252","26071","neither","neither","imgNWTK/KeepItSecret.jpg","imgNWTK/FindOutNow.jpg","info","eq","3.53","{""undefined"":""105""}","","","","","","","","","","","","imgNWTK/KeepItSecret.jpg",""
"3976.8000000044703","","","survey-number","85","1978373","0.0-13.0-0.6","female","20","indonesia","84252","26071","neither","neither","imgNWTK/KeepItSecret.jpg","imgNWTK/FindOutNow.jpg","info","eq","3.53","{""undefined"":""107""}","","","","","","","","","","","","imgNWTK/KeepItSecret.jpg",""
"4618.39999999851","","","survey-number","86","1982995","0.0-13.0-0.7","female","20","indonesia","84252","26071","neither","neither","imgNWTK/KeepItSecret.jpg","imgNWTK/FindOutNow.jpg","info","eq","3.53","{""undefined"":""97""}","","","","","","","","","","","","imgNWTK/KeepItSecret.jpg",""
"5795.10000000149","","","survey-number","87","1988793","0.0-13.0-0.8","female","20","indonesia","84252","26071","neither","neither","imgNWTK/KeepItSecret.jpg","imgNWTK/FindOutNow.jpg","info","eq","3.53","{""undefined"":""102""}","","","","","","","","","","","","imgNWTK/KeepItSecret.jpg",""
"3722.2000000029802","","","survey-number","88","1992519","0.0-13.0-0.9","female","20","indonesia","84252","26071","neither","neither","imgNWTK/KeepItSecret.jpg","imgNWTK/FindOutNow.jpg","info","eq","3.53","{""undefined"":""90""}","","","","","","","","","","","","imgNWTK/KeepItSecret.jpg",""
"3843","<p><b>Imagine that you clicked on the below button for another 10 trials (this includes <i> both WIN and NO-WIN trials</i>).</p> <img src= 'imgNWTK/FindOutNow.jpg'></img></br></br> <p><b>Please type the reward (number of points) you would expect to receive on every trial.</br> Click start to begin.</p>","0","html-button-response","89","1996364","0.0-14.0","female","20","indonesia","84252","26071","neither","neither","imgNWTK/KeepItSecret.jpg","imgNWTK/FindOutNow.jpg","info","eq","3.53","","","","","","","","","","","","","",""
"2858.8000000044703","","","survey-number","90","1999229","0.0-15.0-0.0","female","20","indonesia","84252","26071","neither","neither","imgNWTK/KeepItSecret.jpg","imgNWTK/FindOutNow.jpg","info","eq","3.53","{""undefined"":""0""}","","","","","","","","","","","","imgNWTK/FindOutNow.jpg",""
"2871.5999999940395","","","survey-number","91","2002104","0.0-15.0-0.1","female","20","indonesia","84252","26071","neither","neither","imgNWTK/KeepItSecret.jpg","imgNWTK/FindOutNow.jpg","info","eq","3.53","{""undefined"":""90""}","","","","","","","","","","","","imgNWTK/FindOutNow.jpg",""
"2274.89999999851","","","survey-number","92","2004382","0.0-15.0-0.2","female","20","indonesia","84252","26071","neither","neither","imgNWTK/KeepItSecret.jpg","imgNWTK/FindOutNow.jpg","info","eq","3.53","{""undefined"":""98""}","","","","","","","","","","","","imgNWTK/FindOutNow.jpg",""
"3269.39999999851","","","survey-number","93","2007654","0.0-15.0-0.3","female","20","indonesia","84252","26071","neither","neither","imgNWTK/KeepItSecret.jpg","imgNWTK/FindOutNow.jpg","info","eq","3.53","{""undefined"":""97""}","","","","","","","","","","","","imgNWTK/FindOutNow.jpg",""
"4801","","","survey-number","94","2012459","0.0-15.0-0.4","female","20","indonesia","84252","26071","neither","neither","imgNWTK/KeepItSecret.jpg","imgNWTK/FindOutNow.jpg","info","eq","3.53","{""undefined"":""100""}","","","","","","","","","","","","imgNWTK/FindOutNow.jpg",""
"3232","","","survey-number","95","2015695","0.0-15.0-0.5","female","20","indonesia","84252","26071","neither","neither","imgNWTK/KeepItSecret.jpg","imgNWTK/FindOutNow.jpg","info","eq","3.53","{""undefined"":""102""}","","","","","","","","","","","","imgNWTK/FindOutNow.jpg",""
"2597.2999999970198","","","survey-number","96","2018295","0.0-15.0-0.6","female","20","indonesia","84252","26071","neither","neither","imgNWTK/KeepItSecret.jpg","imgNWTK/FindOutNow.jpg","info","eq","3.53","{""undefined"":""105""}","","","","","","","","","","","","imgNWTK/FindOutNow.jpg",""
"3864.39999999851","","","survey-number","97","2022162","0.0-15.0-0.7","female","20","indonesia","84252","26071","neither","neither","imgNWTK/KeepItSecret.jpg","imgNWTK/FindOutNow.jpg","info","eq","3.53","{""undefined"":""107""}","","","","","","","","","","","","imgNWTK/FindOutNow.jpg",""
"3293.1999999955297","","","survey-number","98","2025458","0.0-15.0-0.8","female","20","indonesia","84252","26071","neither","neither","imgNWTK/KeepItSecret.jpg","imgNWTK/FindOutNow.jpg","info","eq","3.53","{""undefined"":""108""}","","","","","","","","","","","","imgNWTK/FindOutNow.jpg",""
"2355.1999999955297","","","survey-number","99","2027816","0.0-15.0-0.9","female","20","indonesia","84252","26071","neither","neither","imgNWTK/KeepItSecret.jpg","imgNWTK/FindOutNow.jpg","info","eq","3.53","{""undefined"":""98""}","","","","","","","","","","","","imgNWTK/FindOutNow.jpg",""
"33557.39999999851","","","survey-number","100","2061379","0.0-16.0","female","20","indonesia","84252","26071","neither","neither","imgNWTK/KeepItSecret.jpg","imgNWTK/FindOutNow.jpg","info","eq","3.53","{""undefined"":""100""}","","","","","","","","","","","","","imgNWTK/FindOutNow.jpg"
"9937.5","","","survey-number","101","2071319","0.0-17.0","female","20","indonesia","84252","26071","neither","neither","imgNWTK/KeepItSecret.jpg","imgNWTK/FindOutNow.jpg","info","eq","3.53","{""undefined"":""105""}","","","","","","","","","","","","","imgNWTK/KeepItSecret.jpg"
"31144","<p style=""text-align:left;"">Great! We are almost at the end of the study... (Please do not close the browser window yet.)</p><p> Your final points balance is 3530, which equals to a bonus payment of $3.53. The payment can be collected from MAT721; please email amy.x.li@unsw.edu.au at least 24 hours prior to collection so that this is ready for you.</p><p style=""text-align:left;"">To view the debriefing form, please click <a href=""./imgNWTK/debrief_3205.pdf"" target=""_blank"">here</a> to download a copy.</p><p style=""text-align:left;"">Then, <b>please click the below button</b> to confirm that you have received your debrief and to complete the study. Upon clicking ""Finish!"", your SONA credit will be automatically assigned.</p>","0","html-button-response","102","2102466","0.0-18.0","female","20","indonesia","84252","26071","neither","neither","imgNWTK/KeepItSecret.jpg","imgNWTK/FindOutNow.jpg","info","eq","3.53","","","","","","","","","","","","","",""
