"rt","stimulus","button_pressed","trial_type","trial_index","time_elapsed","internal_node_id","gender","age","language","PID","sona_id","subStim","optStim","stim1","stim2","infoCond","optimCond","bonus","responses","banditTrial","choice","cue","feedback","estimateData","leftOption","rightOption","choiceName","leftInput","rightInput","key_press","postQ","singleEst"
"1039","<p>Thank you for signing up to participate in SONA Study 465! <br> During this study, please focus on the experiment and refrain from activities such as:</p>- <b>Switching to other tabs on your browser (this will be monitored via the experiment)</br> - Using your mobile phone/cell phone</br> - Communicating with others</br></br></b><p>This way, you are helping to provide data that is useful for psychological research. We thank you for your cooperation!</p>","0","html-button-response","0","1042","0.0-0.0","male","21","Australia","88877","25429","neither","neither","imgNWTK/square.png","imgNWTK/triangle.png","noninfo","eq","2.98","","","","","","","","","","","","","",""
"987","<p>Welcome to the experiment!</p><p>You will now read some instructions about the task. Press the 'Next' button to continue. </p>","0","html-button-response","1","2031","0.0-1.0","male","21","Australia","88877","25429","neither","neither","imgNWTK/square.png","imgNWTK/triangle.png","noninfo","eq","2.98","","","","","","","","","","","","","",""
"6704","<p> On each trial throughout the experiment you will choose between two options, </br>a <b>Black Square </b> and <b> Black Triangle </b>, as seen below.</p><div><div style= 'float: left; width: 300px; margin: 10px 10px;'><img src= 'imgNWTK/square.png'></img></div><div style= 'float: right; width: 300px; margin: 10px 10px;'><img src= 'imgNWTK/triangle.png'></img></div></div><br/><br/><br/><br/><br/><br/><br/><br/><br/><br/><br/><p>Each option results in winning points or receiving 0 points.</br>There is a 50% chance of either winning or receiving 0 points.</p><p>You won't receive the outcome until after a <b> 20 second delay</b>.</p>","0","html-button-response","2","8736","0.0-2.0-0.0","male","21","Australia","88877","25429","neither","neither","imgNWTK/square.png","imgNWTK/triangle.png","noninfo","eq","2.98","","","","","","","","","","","","","",""
"13533","<img src= 'imgNWTK/NonInfoDiagram.png'></img><p>As seen above, whether you choose the square or triangle, you will receive a coloured circle after the choice. </p> <p>This circle will be on screen for 20 seconds until you win points or receive 0 points.</p><p>The coloured circle depends on which option you chose. </br> In the above example, choosing a triangle leads to a green circle and choosing the square leads to a red circle.</p>Please note: the circles in your task will be different to the above colours.</br></br>","0","html-button-response","3","22271","0.0-2.0-1.0","male","21","Australia","88877","25429","neither","neither","imgNWTK/square.png","imgNWTK/triangle.png","noninfo","eq","2.98","","","","","","","","","","","","","",""
"4936","<img src= 'cues/winTrials_noInfo.png' width = '1200'></img><p>To reiterate, 50% of the outcomes of each option will be WIN TRIALS, and the other 50% will be NO-WIN TRIALS.","0","html-button-response","4","27209","0.0-2.0-2.0","male","21","Australia","88877","25429","neither","neither","imgNWTK/square.png","imgNWTK/triangle.png","noninfo","eq","2.98","","","","","","","","","","","","","",""
"152100","<p> There will be <b>four blocks</b> in the experiment.</br>You will be given a short 15 second break between each block.</p><p><b>The points and the options will remain the same between the blocks.</b></p>The blocks are there just to give you a small break.</br></br></br></br><p>The points you earn in the task are also equal to <b> actual money</b>.</br> <b>1000 points is equal to $1 AUD</b></p><p>This is the rate you will be paid at the experiment's end.","0","html-button-response","5","179314","0.0-2.0-3.0","male","21","Australia","88877","25429","neither","neither","imgNWTK/square.png","imgNWTK/triangle.png","noninfo","eq","2.98","","","","","","","","","","","","","",""
"11450","","","survey-multi-choice","6","190787","0.0-2.0-4.0","male","21","Australia","88877","25429","neither","neither","imgNWTK/square.png","imgNWTK/triangle.png","noninfo","eq","2.98","{""Q0"":""20 Seconds"",""Q1"":""True"",""Q2"":""Equally""}","","","","","","","","","","","","",""
"8112","<p> Well done, all your answers were correct! <br> The experiment is about to start now. <br/> Click start to continue, or email your researcher <b>(amy.x.li@unsw.edu.au)</b> if you have any questions before starting.","0","html-button-response","7","198908","0.0-3.0","male","21","Australia","88877","25429","neither","neither","imgNWTK/square.png","imgNWTK/triangle.png","noninfo","eq","2.98","","","","","","","","","","","","","",""
"1671","","","bandit-task-exp6","8","225405","0.0-4.0-0.0","male","21","Australia","88877","25429","neither","neither","imgNWTK/square.png","imgNWTK/triangle.png","noninfo","eq","2.98","","1","1","1","96","null","imgNWTK/square.png","imgNWTK/triangle.png","imgNWTK/square.png","NaN","NaN","","",""
"2242","","","bandit-task-exp6","9","252166","0.0-4.0-0.1","male","21","Australia","88877","25429","neither","neither","imgNWTK/square.png","imgNWTK/triangle.png","noninfo","eq","2.98","","2","2","2","105","null","imgNWTK/triangle.png","imgNWTK/square.png","imgNWTK/triangle.png","NaN","NaN","","",""
"2370","","","bandit-task-exp6","10","277381","0.0-4.0-0.2","male","21","Australia","88877","25429","neither","neither","imgNWTK/square.png","imgNWTK/triangle.png","noninfo","eq","2.98","","3","2","1","0","null","imgNWTK/square.png","imgNWTK/triangle.png","imgNWTK/triangle.png","NaN","NaN","","",""
"2265","","","bandit-task-exp6","11","301712","0.0-4.0-0.3","male","21","Australia","88877","25429","neither","neither","imgNWTK/square.png","imgNWTK/triangle.png","noninfo","eq","2.98","","4","1","1","108","null","imgNWTK/triangle.png","imgNWTK/square.png","imgNWTK/square.png","NaN","NaN","","",""
"593","","","bandit-task-exp6","12","324662","0.0-4.0-0.4","male","21","Australia","88877","25429","neither","neither","imgNWTK/square.png","imgNWTK/triangle.png","noninfo","eq","2.98","","5","1","1","107","null","imgNWTK/square.png","imgNWTK/triangle.png","imgNWTK/square.png","NaN","NaN","","",""
"604","","","bandit-task-exp6","13","348118","0.0-4.0-0.5","male","21","Australia","88877","25429","neither","neither","imgNWTK/square.png","imgNWTK/triangle.png","noninfo","eq","2.98","","6","2","2","109","null","imgNWTK/square.png","imgNWTK/triangle.png","imgNWTK/triangle.png","NaN","NaN","","",""
"627","","","bandit-task-exp6","14","371541","0.0-4.0-0.6","male","21","Australia","88877","25429","neither","neither","imgNWTK/square.png","imgNWTK/triangle.png","noninfo","eq","2.98","","7","1","1","90","null","imgNWTK/square.png","imgNWTK/triangle.png","imgNWTK/square.png","NaN","NaN","","",""
"526","","","bandit-task-exp6","15","394221","0.0-4.0-0.7","male","21","Australia","88877","25429","neither","neither","imgNWTK/square.png","imgNWTK/triangle.png","noninfo","eq","2.98","","8","2","1","0","null","imgNWTK/square.png","imgNWTK/triangle.png","imgNWTK/triangle.png","NaN","NaN","","",""
"2595","","","bandit-task-exp6","16","422089","0.0-4.0-0.8","male","21","Australia","88877","25429","neither","neither","imgNWTK/square.png","imgNWTK/triangle.png","noninfo","eq","2.98","","9","1","2","0","null","imgNWTK/triangle.png","imgNWTK/square.png","imgNWTK/square.png","NaN","NaN","","",""
"603","","","bandit-task-exp6","17","447096","0.0-4.0-0.9","male","21","Australia","88877","25429","neither","neither","imgNWTK/square.png","imgNWTK/triangle.png","noninfo","eq","2.98","","10","2","1","0","null","imgNWTK/triangle.png","imgNWTK/square.png","imgNWTK/triangle.png","NaN","NaN","","",""
"684","","","bandit-task-exp6","18","471182","0.0-4.0-0.10","male","21","Australia","88877","25429","neither","neither","imgNWTK/square.png","imgNWTK/triangle.png","noninfo","eq","2.98","","11","1","1","101","null","imgNWTK/square.png","imgNWTK/triangle.png","imgNWTK/square.png","NaN","NaN","","",""
"1112","","","bandit-task-exp6","19","495516","0.0-4.0-0.11","male","21","Australia","88877","25429","neither","neither","imgNWTK/square.png","imgNWTK/triangle.png","noninfo","eq","2.98","","12","2","1","0","null","imgNWTK/triangle.png","imgNWTK/square.png","imgNWTK/triangle.png","NaN","NaN","","",""
"1280","","","bandit-task-exp6","20","518973","0.0-4.0-0.12","male","21","Australia","88877","25429","neither","neither","imgNWTK/square.png","imgNWTK/triangle.png","noninfo","eq","2.98","","13","1","2","0","null","imgNWTK/square.png","imgNWTK/triangle.png","imgNWTK/square.png","NaN","NaN","","",""
"1066","","","bandit-task-exp6","21","542193","0.0-4.0-0.13","male","21","Australia","88877","25429","neither","neither","imgNWTK/square.png","imgNWTK/triangle.png","noninfo","eq","2.98","","14","1","2","0","null","imgNWTK/triangle.png","imgNWTK/square.png","imgNWTK/square.png","NaN","NaN","","",""
"705","","","bandit-task-exp6","22","564963","0.0-4.0-0.14","male","21","Australia","88877","25429","neither","neither","imgNWTK/square.png","imgNWTK/triangle.png","noninfo","eq","2.98","","15","1","1","99","null","imgNWTK/triangle.png","imgNWTK/square.png","imgNWTK/square.png","NaN","NaN","","",""
"null","<p><b> Congratulations, you have finished this block. </b> </p><p>Please take a short break before moving onto the next block.</p><p>The next block will start after a 15 second break.</p><b>Remember, the point rewards are the same between blocks","","html-keyboard-response","23","579970","0.0-5.0","male","21","Australia","88877","25429","neither","neither","imgNWTK/square.png","imgNWTK/triangle.png","noninfo","eq","2.98","","","","","","","","","","","","null","",""
"740","","","bandit-task-exp6","24","602651","0.0-6.0-0.0","male","21","Australia","88877","25429","neither","neither","imgNWTK/square.png","imgNWTK/triangle.png","noninfo","eq","2.98","","16","1","2","0","null","imgNWTK/square.png","imgNWTK/triangle.png","imgNWTK/square.png","NaN","NaN","","",""
"605","","","bandit-task-exp6","25","629213","0.0-6.0-0.1","male","21","Australia","88877","25429","neither","neither","imgNWTK/square.png","imgNWTK/triangle.png","noninfo","eq","2.98","","17","2","1","0","null","imgNWTK/square.png","imgNWTK/triangle.png","imgNWTK/triangle.png","NaN","NaN","","",""
"694","","","bandit-task-exp6","26","652141","0.0-6.0-0.2","male","21","Australia","88877","25429","neither","neither","imgNWTK/square.png","imgNWTK/triangle.png","noninfo","eq","2.98","","18","2","1","0","null","imgNWTK/triangle.png","imgNWTK/square.png","imgNWTK/triangle.png","NaN","NaN","","",""
"581","","","bandit-task-exp6","27","674641","0.0-6.0-0.3","male","21","Australia","88877","25429","neither","neither","imgNWTK/square.png","imgNWTK/triangle.png","noninfo","eq","2.98","","19","1","1","104","null","imgNWTK/triangle.png","imgNWTK/square.png","imgNWTK/square.png","NaN","NaN","","",""
"683","","","bandit-task-exp6","28","697591","0.0-6.0-0.4","male","21","Australia","88877","25429","neither","neither","imgNWTK/square.png","imgNWTK/triangle.png","noninfo","eq","2.98","","20","2","1","0","null","imgNWTK/triangle.png","imgNWTK/square.png","imgNWTK/triangle.png","NaN","NaN","","",""
"514","","","bandit-task-exp6","29","726233","0.0-6.0-0.5","male","21","Australia","88877","25429","neither","neither","imgNWTK/square.png","imgNWTK/triangle.png","noninfo","eq","2.98","","21","2","1","0","null","imgNWTK/square.png","imgNWTK/triangle.png","imgNWTK/triangle.png","NaN","NaN","","",""
"1246","","","bandit-task-exp6","30","757553","0.0-6.0-0.6","male","21","Australia","88877","25429","neither","neither","imgNWTK/square.png","imgNWTK/triangle.png","noninfo","eq","2.98","","22","1","1","93","null","imgNWTK/triangle.png","imgNWTK/square.png","imgNWTK/square.png","NaN","NaN","","",""
"740","","","bandit-task-exp6","31","780842","0.0-6.0-0.7","male","21","Australia","88877","25429","neither","neither","imgNWTK/square.png","imgNWTK/triangle.png","noninfo","eq","2.98","","23","2","1","0","null","imgNWTK/triangle.png","imgNWTK/square.png","imgNWTK/triangle.png","NaN","NaN","","",""
"3213","","","bandit-task-exp6","32","807776","0.0-6.0-0.8","male","21","Australia","88877","25429","neither","neither","imgNWTK/square.png","imgNWTK/triangle.png","noninfo","eq","2.98","","24","2","1","0","null","imgNWTK/square.png","imgNWTK/triangle.png","imgNWTK/triangle.png","NaN","NaN","","",""
"736","","","bandit-task-exp6","33","831084","0.0-6.0-0.9","male","21","Australia","88877","25429","neither","neither","imgNWTK/square.png","imgNWTK/triangle.png","noninfo","eq","2.98","","25","1","2","0","null","imgNWTK/square.png","imgNWTK/triangle.png","imgNWTK/square.png","NaN","NaN","","",""
"1279","","","bandit-task-exp6","34","856498","0.0-6.0-0.10","male","21","Australia","88877","25429","neither","neither","imgNWTK/square.png","imgNWTK/triangle.png","noninfo","eq","2.98","","26","2","1","0","null","imgNWTK/square.png","imgNWTK/triangle.png","imgNWTK/triangle.png","NaN","NaN","","",""
"3653","","","bandit-task-exp6","35","886277","0.0-6.0-0.11","male","21","Australia","88877","25429","neither","neither","imgNWTK/square.png","imgNWTK/triangle.png","noninfo","eq","2.98","","27","2","2","97","null","imgNWTK/triangle.png","imgNWTK/square.png","imgNWTK/triangle.png","NaN","NaN","","",""
"3045","","","bandit-task-exp6","36","911544","0.0-6.0-0.12","male","21","Australia","88877","25429","neither","neither","imgNWTK/square.png","imgNWTK/triangle.png","noninfo","eq","2.98","","28","1","1","97","null","imgNWTK/triangle.png","imgNWTK/square.png","imgNWTK/square.png","NaN","NaN","","",""
"639","","","bandit-task-exp6","37","934157","0.0-6.0-0.13","male","21","Australia","88877","25429","neither","neither","imgNWTK/square.png","imgNWTK/triangle.png","noninfo","eq","2.98","","29","1","2","0","null","imgNWTK/square.png","imgNWTK/triangle.png","imgNWTK/square.png","NaN","NaN","","",""
"3327","","","bandit-task-exp6","38","959616","0.0-6.0-0.14","male","21","Australia","88877","25429","neither","neither","imgNWTK/square.png","imgNWTK/triangle.png","noninfo","eq","2.98","","30","1","2","0","null","imgNWTK/triangle.png","imgNWTK/square.png","imgNWTK/square.png","NaN","NaN","","",""
"null","<p><b> Congratulations, you have finished this block. </b> </p><p>Please take a short break before moving onto the next block.</p><p>The next block will start after a 15 second break.</p><b>Remember, the point rewards are the same between blocks","","html-keyboard-response","39","974622","0.0-7.0","male","21","Australia","88877","25429","neither","neither","imgNWTK/square.png","imgNWTK/triangle.png","noninfo","eq","2.98","","","","","","","","","","","","null","",""
"899","","","bandit-task-exp6","40","997788","0.0-8.0-0.0","male","21","Australia","88877","25429","neither","neither","imgNWTK/square.png","imgNWTK/triangle.png","noninfo","eq","2.98","","31","2","1","0","null","imgNWTK/triangle.png","imgNWTK/square.png","imgNWTK/triangle.png","NaN","NaN","","",""
"514","","","bandit-task-exp6","41","1025812","0.0-8.0-0.1","male","21","Australia","88877","25429","neither","neither","imgNWTK/square.png","imgNWTK/triangle.png","noninfo","eq","2.98","","32","2","2","90","null","imgNWTK/square.png","imgNWTK/triangle.png","imgNWTK/triangle.png","NaN","NaN","","",""
"434","","","bandit-task-exp6","42","1050687","0.0-8.0-0.2","male","21","Australia","88877","25429","neither","neither","imgNWTK/square.png","imgNWTK/triangle.png","noninfo","eq","2.98","","33","2","2","96","null","imgNWTK/triangle.png","imgNWTK/square.png","imgNWTK/triangle.png","NaN","NaN","","",""
"592","","","bandit-task-exp6","43","1073231","0.0-8.0-0.3","male","21","Australia","88877","25429","neither","neither","imgNWTK/square.png","imgNWTK/triangle.png","noninfo","eq","2.98","","34","2","2","95","null","imgNWTK/square.png","imgNWTK/triangle.png","imgNWTK/triangle.png","NaN","NaN","","",""
"535","","","bandit-task-exp6","44","1096441","0.0-8.0-0.4","male","21","Australia","88877","25429","neither","neither","imgNWTK/square.png","imgNWTK/triangle.png","noninfo","eq","2.98","","35","2","2","105","null","imgNWTK/triangle.png","imgNWTK/square.png","imgNWTK/triangle.png","NaN","NaN","","",""
"907","","","bandit-task-exp6","45","1129650","0.0-8.0-0.5","male","21","Australia","88877","25429","neither","neither","imgNWTK/square.png","imgNWTK/triangle.png","noninfo","eq","2.98","","36","1","2","0","null","imgNWTK/square.png","imgNWTK/triangle.png","imgNWTK/square.png","NaN","NaN","","",""
"492","","","bandit-task-exp6","46","1151981","0.0-8.0-0.6","male","21","Australia","88877","25429","neither","neither","imgNWTK/square.png","imgNWTK/triangle.png","noninfo","eq","2.98","","37","1","1","104","null","imgNWTK/square.png","imgNWTK/triangle.png","imgNWTK/square.png","NaN","NaN","","",""
"503","","","bandit-task-exp6","47","1174876","0.0-8.0-0.7","male","21","Australia","88877","25429","neither","neither","imgNWTK/square.png","imgNWTK/triangle.png","noninfo","eq","2.98","","38","2","1","0","null","imgNWTK/triangle.png","imgNWTK/square.png","imgNWTK/triangle.png","NaN","NaN","","",""
"660","","","bandit-task-exp6","48","1197885","0.0-8.0-0.8","male","21","Australia","88877","25429","neither","neither","imgNWTK/square.png","imgNWTK/triangle.png","noninfo","eq","2.98","","39","1","1","103","null","imgNWTK/triangle.png","imgNWTK/square.png","imgNWTK/square.png","NaN","NaN","","",""
"545","","","bandit-task-exp6","49","1224173","0.0-8.0-0.9","male","21","Australia","88877","25429","neither","neither","imgNWTK/square.png","imgNWTK/triangle.png","noninfo","eq","2.98","","40","1","1","96","null","imgNWTK/square.png","imgNWTK/triangle.png","imgNWTK/square.png","NaN","NaN","","",""
"605","","","bandit-task-exp6","50","1247564","0.0-8.0-0.10","male","21","Australia","88877","25429","neither","neither","imgNWTK/square.png","imgNWTK/triangle.png","noninfo","eq","2.98","","41","1","1","104","null","imgNWTK/square.png","imgNWTK/triangle.png","imgNWTK/square.png","NaN","NaN","","",""
"500","","","bandit-task-exp6","51","1269770","0.0-8.0-0.11","male","21","Australia","88877","25429","neither","neither","imgNWTK/square.png","imgNWTK/triangle.png","noninfo","eq","2.98","","42","1","2","0","null","imgNWTK/square.png","imgNWTK/triangle.png","imgNWTK/square.png","NaN","NaN","","",""
"481","","","bandit-task-exp6","52","1292103","0.0-8.0-0.12","male","21","Australia","88877","25429","neither","neither","imgNWTK/square.png","imgNWTK/triangle.png","noninfo","eq","2.98","","43","1","1","97","null","imgNWTK/square.png","imgNWTK/triangle.png","imgNWTK/square.png","NaN","NaN","","",""
"558","","","bandit-task-exp6","53","1324258","0.0-8.0-0.13","male","21","Australia","88877","25429","neither","neither","imgNWTK/square.png","imgNWTK/triangle.png","noninfo","eq","2.98","","44","2","1","0","null","imgNWTK/triangle.png","imgNWTK/square.png","imgNWTK/triangle.png","NaN","NaN","","",""
"831","","","bandit-task-exp6","54","1352448","0.0-8.0-0.14","male","21","Australia","88877","25429","neither","neither","imgNWTK/square.png","imgNWTK/triangle.png","noninfo","eq","2.98","","45","2","1","0","null","imgNWTK/triangle.png","imgNWTK/square.png","imgNWTK/triangle.png","NaN","NaN","","",""
"null","<p><b> Congratulations, you have finished this block. </b> </p><p>Please take a short break before moving onto the next block.</p><p>The next block will start after a 15 second break.</p><b>Remember, the point rewards are the same between blocks","","html-keyboard-response","55","1367456","0.0-9.0","male","21","Australia","88877","25429","neither","neither","imgNWTK/square.png","imgNWTK/triangle.png","noninfo","eq","2.98","","","","","","","","","","","","null","",""
"27917","","","bandit-task-exp6","56","1417397","0.0-10.0-0.0","male","21","Australia","88877","25429","neither","neither","imgNWTK/square.png","imgNWTK/triangle.png","noninfo","eq","2.98","","46","2","2","92","null","imgNWTK/square.png","imgNWTK/triangle.png","imgNWTK/triangle.png","100","100","","",""
"6653","","","bandit-task-exp6","57","1445960","0.0-10.0-0.1","male","21","Australia","88877","25429","neither","neither","imgNWTK/square.png","imgNWTK/triangle.png","noninfo","eq","2.98","","47","1","1","102","null","imgNWTK/square.png","imgNWTK/triangle.png","imgNWTK/square.png","100","100","","",""
"3920","","","bandit-task-exp6","58","1472127","0.0-10.0-0.2","male","21","Australia","88877","25429","neither","neither","imgNWTK/square.png","imgNWTK/triangle.png","noninfo","eq","2.98","","48","2","1","0","null","imgNWTK/square.png","imgNWTK/triangle.png","imgNWTK/triangle.png","100","100","","",""
"4056","","","bandit-task-exp6","59","1499546","0.0-10.0-0.3","male","21","Australia","88877","25429","neither","neither","imgNWTK/square.png","imgNWTK/triangle.png","noninfo","eq","2.98","","49","2","1","0","null","imgNWTK/triangle.png","imgNWTK/square.png","imgNWTK/triangle.png","100","100","","",""
"5471","","","bandit-task-exp6","60","1526780","0.0-10.0-0.4","male","21","Australia","88877","25429","neither","neither","imgNWTK/square.png","imgNWTK/triangle.png","noninfo","eq","2.98","","50","1","2","0","null","imgNWTK/triangle.png","imgNWTK/square.png","imgNWTK/square.png","100","100","","",""
"3740","","","bandit-task-exp6","61","1553487","0.0-10.0-0.5","male","21","Australia","88877","25429","neither","neither","imgNWTK/square.png","imgNWTK/triangle.png","noninfo","eq","2.98","","51","2","2","102","null","imgNWTK/triangle.png","imgNWTK/square.png","imgNWTK/triangle.png","100","100","","",""
"3785","","","bandit-task-exp6","62","1586662","0.0-10.0-0.6","male","21","Australia","88877","25429","neither","neither","imgNWTK/square.png","imgNWTK/triangle.png","noninfo","eq","2.98","","52","1","2","0","null","imgNWTK/square.png","imgNWTK/triangle.png","imgNWTK/square.png","100","100","","",""
"3765","","","bandit-task-exp6","63","1612238","0.0-10.0-0.7","male","21","Australia","88877","25429","neither","neither","imgNWTK/square.png","imgNWTK/triangle.png","noninfo","eq","2.98","","53","2","2","100","null","imgNWTK/triangle.png","imgNWTK/square.png","imgNWTK/triangle.png","100","100","","",""
"3468","","","bandit-task-exp6","64","1638369","0.0-10.0-0.8","male","21","Australia","88877","25429","neither","neither","imgNWTK/square.png","imgNWTK/triangle.png","noninfo","eq","2.98","","54","2","2","90","null","imgNWTK/square.png","imgNWTK/triangle.png","imgNWTK/triangle.png","100","100","","",""
"3132","","","bandit-task-exp6","65","1663425","0.0-10.0-0.9","male","21","Australia","88877","25429","neither","neither","imgNWTK/square.png","imgNWTK/triangle.png","noninfo","eq","2.98","","55","2","2","92","null","imgNWTK/triangle.png","imgNWTK/square.png","imgNWTK/triangle.png","100","100","","",""
"3851","","","bandit-task-exp6","66","1689118","0.0-10.0-0.10","male","21","Australia","88877","25429","neither","neither","imgNWTK/square.png","imgNWTK/triangle.png","noninfo","eq","2.98","","56","1","1","101","null","imgNWTK/square.png","imgNWTK/triangle.png","imgNWTK/square.png","100","100","","",""
"3472","","","bandit-task-exp6","67","1714835","0.0-10.0-0.11","male","21","Australia","88877","25429","neither","neither","imgNWTK/square.png","imgNWTK/triangle.png","noninfo","eq","2.98","","57","1","1","104","null","imgNWTK/square.png","imgNWTK/triangle.png","imgNWTK/square.png","100","100","","",""
"3483","","","bandit-task-exp6","68","1740328","0.0-10.0-0.12","male","21","Australia","88877","25429","neither","neither","imgNWTK/square.png","imgNWTK/triangle.png","noninfo","eq","2.98","","58","1","2","0","null","imgNWTK/square.png","imgNWTK/triangle.png","imgNWTK/square.png","100","100","","",""
"3314","","","bandit-task-exp6","69","1767160","0.0-10.0-0.13","male","21","Australia","88877","25429","neither","neither","imgNWTK/square.png","imgNWTK/triangle.png","noninfo","eq","2.98","","59","1","2","0","null","imgNWTK/square.png","imgNWTK/triangle.png","imgNWTK/square.png","100","100","","",""
"3628","","","bandit-task-exp6","70","1792570","0.0-10.0-0.14","male","21","Australia","88877","25429","neither","neither","imgNWTK/square.png","imgNWTK/triangle.png","noninfo","eq","2.98","","60","2","2","96","null","imgNWTK/square.png","imgNWTK/triangle.png","imgNWTK/triangle.png","100","100","","",""
"2523","<p> Congratulations, you have finished the main part of the experiment. </p><p>Before you finish, we have a few short questions about the options and outcomes you saw in the task.</p>","0","html-button-response","71","1795107","0.0-11.0","male","21","Australia","88877","25429","neither","neither","imgNWTK/square.png","imgNWTK/triangle.png","noninfo","eq","2.98","","","","","","","","","","","","","",""
"3937","<p><b>Now, imagine that you clicked on the below button for another 10 trials (this includes <i> BOTH WIN and NO-WIN trials</i>).</p> <img src= 'imgNWTK/square.png'></img></br></br> <p><b>Please type the reward (number of points) you would expect to receive on every trial.</br> Click start to begin.</p>","0","html-button-response","72","1799053","0.0-12.0","male","21","Australia","88877","25429","neither","neither","imgNWTK/square.png","imgNWTK/triangle.png","noninfo","eq","2.98","","","","","","","","","","","","","",""
"3276.699999988079","","","survey-number","73","1802355","0.0-13.0-0.0","male","21","Australia","88877","25429","neither","neither","imgNWTK/square.png","imgNWTK/triangle.png","noninfo","eq","2.98","{""undefined"":""100""}","","","","","","","","","","","","imgNWTK/square.png",""
"2469","","","survey-number","74","1804835","0.0-13.0-0.1","male","21","Australia","88877","25429","neither","neither","imgNWTK/square.png","imgNWTK/triangle.png","noninfo","eq","2.98","{""undefined"":""100""}","","","","","","","","","","","","imgNWTK/square.png",""
"1946.300000011921","","","survey-number","75","1806804","0.0-13.0-0.2","male","21","Australia","88877","25429","neither","neither","imgNWTK/square.png","imgNWTK/triangle.png","noninfo","eq","2.98","{""undefined"":""100""}","","","","","","","","","","","","imgNWTK/square.png",""
"1909.699999988079","","","survey-number","76","1808717","0.0-13.0-0.3","male","21","Australia","88877","25429","neither","neither","imgNWTK/square.png","imgNWTK/triangle.png","noninfo","eq","2.98","{""undefined"":""100""}","","","","","","","","","","","","imgNWTK/square.png",""
"1627.300000011921","","","survey-number","77","1810349","0.0-13.0-0.4","male","21","Australia","88877","25429","neither","neither","imgNWTK/square.png","imgNWTK/triangle.png","noninfo","eq","2.98","{""undefined"":""100""}","","","","","","","","","","","","imgNWTK/square.png",""
"1807.1000000238419","","","survey-number","78","1812160","0.0-13.0-0.5","male","21","Australia","88877","25429","neither","neither","imgNWTK/square.png","imgNWTK/triangle.png","noninfo","eq","2.98","{""undefined"":""100""}","","","","","","","","","","","","imgNWTK/square.png",""
"2942","","","survey-number","79","1815108","0.0-13.0-0.6","male","21","Australia","88877","25429","neither","neither","imgNWTK/square.png","imgNWTK/triangle.png","noninfo","eq","2.98","{""undefined"":""100""}","","","","","","","","","","","","imgNWTK/square.png",""
"1872.300000011921","","","survey-number","80","1816986","0.0-13.0-0.7","male","21","Australia","88877","25429","neither","neither","imgNWTK/square.png","imgNWTK/triangle.png","noninfo","eq","2.98","{""undefined"":""100""}","","","","","","","","","","","","imgNWTK/square.png",""
"1686.199999988079","","","survey-number","81","1818677","0.0-13.0-0.8","male","21","Australia","88877","25429","neither","neither","imgNWTK/square.png","imgNWTK/triangle.png","noninfo","eq","2.98","{""undefined"":""100""}","","","","","","","","","","","","imgNWTK/square.png",""
"1837.9000000357628","","","survey-number","82","1820519","0.0-13.0-0.9","male","21","Australia","88877","25429","neither","neither","imgNWTK/square.png","imgNWTK/triangle.png","noninfo","eq","2.98","{""undefined"":""100""}","","","","","","","","","","","","imgNWTK/square.png",""
"1244","<p><b>Imagine that you clicked on the below button for another 10 trials (this includes <i> both WIN and NO-WIN trials</i>).</p> <img src= 'imgNWTK/triangle.png'></img></br></br> <p><b>Please type the reward (number of points) you would expect to receive on every trial.</br> Click start to begin.</p>","0","html-button-response","83","1821767","0.0-14.0","male","21","Australia","88877","25429","neither","neither","imgNWTK/square.png","imgNWTK/triangle.png","noninfo","eq","2.98","","","","","","","","","","","","","",""
"3055.099999964237","","","survey-number","84","1824826","0.0-15.0-0.0","male","21","Australia","88877","25429","neither","neither","imgNWTK/square.png","imgNWTK/triangle.png","noninfo","eq","2.98","{""undefined"":""100""}","","","","","","","","","","","","imgNWTK/triangle.png",""
"1524.5","","","survey-number","85","1826358","0.0-15.0-0.1","male","21","Australia","88877","25429","neither","neither","imgNWTK/square.png","imgNWTK/triangle.png","noninfo","eq","2.98","{""undefined"":""100""}","","","","","","","","","","","","imgNWTK/triangle.png",""
"2043.2000000476837","","","survey-number","86","1828405","0.0-15.0-0.2","male","21","Australia","88877","25429","neither","neither","imgNWTK/square.png","imgNWTK/triangle.png","noninfo","eq","2.98","{""undefined"":""100""}","","","","","","","","","","","","imgNWTK/triangle.png",""
"1503.699999988079","","","survey-number","87","1829913","0.0-15.0-0.3","male","21","Australia","88877","25429","neither","neither","imgNWTK/square.png","imgNWTK/triangle.png","noninfo","eq","2.98","{""undefined"":""100""}","","","","","","","","","","","","imgNWTK/triangle.png",""
"1762","","","survey-number","88","1831679","0.0-15.0-0.4","male","21","Australia","88877","25429","neither","neither","imgNWTK/square.png","imgNWTK/triangle.png","noninfo","eq","2.98","{""undefined"":""100""}","","","","","","","","","","","","imgNWTK/triangle.png",""
"1672","","","survey-number","89","1833355","0.0-15.0-0.5","male","21","Australia","88877","25429","neither","neither","imgNWTK/square.png","imgNWTK/triangle.png","noninfo","eq","2.98","{""undefined"":""100""}","","","","","","","","","","","","imgNWTK/triangle.png",""
"1728.300000011921","","","survey-number","90","1835088","0.0-15.0-0.6","male","21","Australia","88877","25429","neither","neither","imgNWTK/square.png","imgNWTK/triangle.png","noninfo","eq","2.98","{""undefined"":""100""}","","","","","","","","","","","","imgNWTK/triangle.png",""
"2301.800000011921","","","survey-number","91","1837394","0.0-15.0-0.7","male","21","Australia","88877","25429","neither","neither","imgNWTK/square.png","imgNWTK/triangle.png","noninfo","eq","2.98","{""undefined"":""100""}","","","","","","","","","","","","imgNWTK/triangle.png",""
"2089.699999988079","","","survey-number","92","1839488","0.0-15.0-0.8","male","21","Australia","88877","25429","neither","neither","imgNWTK/square.png","imgNWTK/triangle.png","noninfo","eq","2.98","{""undefined"":""100""}","","","","","","","","","","","","imgNWTK/triangle.png",""
"1682.0999999642372","","","survey-number","93","1841174","0.0-15.0-0.9","male","21","Australia","88877","25429","neither","neither","imgNWTK/square.png","imgNWTK/triangle.png","noninfo","eq","2.98","{""undefined"":""10""}","","","","","","","","","","","","imgNWTK/triangle.png",""
"22531","","","survey-number","94","1863730","0.0-16.0","male","21","Australia","88877","25429","neither","neither","imgNWTK/square.png","imgNWTK/triangle.png","noninfo","eq","2.98","{""undefined"":""100""}","","","","","","","","","","","","","imgNWTK/square.png"
"2603.5","","","survey-number","95","1866341","0.0-17.0","male","21","Australia","88877","25429","neither","neither","imgNWTK/square.png","imgNWTK/triangle.png","noninfo","eq","2.98","{""undefined"":""100""}","","","","","","","","","","","","","imgNWTK/triangle.png"
"27129","<p style=""text-align:left;"">Great! We are almost at the end of the study... (Please do not close the browser window yet.)</p><p> Your final points balance is 2975, which equals to a bonus payment of $2.98. The payment can be collected from MAT721; please email amy.x.li@unsw.edu.au at least 24 hours prior to collection so that this is ready for you.</p><p style=""text-align:left;"">To view the debriefing form, please click <a href=""./imgNWTK/debrief_3205.pdf"" target=""_blank"">here</a> to download a copy.</p><p style=""text-align:left;"">Then, <b>please click the below button</b> to confirm that you have received your debrief and to complete the study. Upon clicking ""Finish!"", your SONA credit will be automatically assigned.</p>","0","html-button-response","96","1893477","0.0-18.0","male","21","Australia","88877","25429","neither","neither","imgNWTK/square.png","imgNWTK/triangle.png","noninfo","eq","2.98","","","","","","","","","","","","","",""
