"rt","stimulus","button_pressed","trial_type","trial_index","time_elapsed","internal_node_id","gender","age","language","PID","sona_id","subStim","optStim","stim1","stim2","infoCond","optimCond","bonus","responses","banditTrial","choice","cue","feedback","estimateData","leftOption","rightOption","choiceName","leftInput","rightInput","key_press","postQ","singleEst"
"10112","<p>Thank you for signing up to participate in SONA Study 465! <br> During this study, please focus on the experiment and refrain from activities such as:</p>- <b>Switching to other tabs on your browser (this will be monitored via the experiment)</br> - Using your mobile phone/cell phone</br> - Communicating with others</br></br></b><p>This way, you are helping to provide data that is useful for psychological research. We thank you for your cooperation!</p>","0","html-button-response","0","10116","0.0-0.0","female","18","Australia ","15544","24847","neither","neither","imgNWTK/KeepItSecret.jpg","imgNWTK/FindOutNow.jpg","info","eq","2.92","","","","","","","","","","","","","",""
"2132","<p>Welcome to the experiment!</p><p>You will now read some instructions about the task. Press the 'Next' button to continue. </p>","0","html-button-response","1","12249","0.0-1.0","female","18","Australia ","15544","24847","neither","neither","imgNWTK/KeepItSecret.jpg","imgNWTK/FindOutNow.jpg","info","eq","2.92","","","","","","","","","","","","","",""
"11486","<p> On each trial throughout the experiment you will choose between the options </br><b> Find Out Now </b> and <b> Keep It Secret </b>, as shown below.</p><div><div style= 'float: left; width: 300px; margin: 10px 10px;'><img src= 'imgNWTK/KeepItSecret.jpg'></img></div><div style= 'float: right; width: 300px; margin: 10px 10px;'><img src= 'imgNWTK/FindOutNow.jpg'></img></div></div><br/><br/><br/><br/><br/><br/><br/><br/><br/><br/><br/><p>Each option results in winning points or receiving 0 points.</br>There is a 50% chance of either winning or receiving 0 points.</p><p>You won't receive the outcome until after a <b> 20 second delay</b>. However, selecting the Find Out Now option will allow you to find out about the outcome early, whereas the Keep It Secret option will not. </p>","0","html-button-response","2","23737","0.0-2.0-0.0","female","18","Australia ","15544","24847","neither","neither","imgNWTK/KeepItSecret.jpg","imgNWTK/FindOutNow.jpg","info","eq","2.92","","","","","","","","","","","","","",""
"29697","<img src= 'cues/Experiment6.png'></img><p>As seen above, when choosing the <b>'Find Out Now'</b> option, you will receive either a happy face or sad face.</br>The happy face means you will win points after the delay, whereas the sad face means you will receive 0 points.</br></p><p> When choosing the <b> 'Keep it Secret' </b> option you will receive a confused face.</br> This face appears regardless of whether you are going to win points or not. </p>In short, choosing 'Find Out Now' allows you to find out the outcome before you experience it (after the delay).</br></br>","0","html-button-response","3","53436","0.0-2.0-1.0","female","18","Australia ","15544","24847","neither","neither","imgNWTK/KeepItSecret.jpg","imgNWTK/FindOutNow.jpg","info","eq","2.92","","","","","","","","","","","","","",""
"6703","<img src= 'cues/winTrials_info.png' width = '1200'></img><p>To reiterate, 50% of the outcomes of each option will be WIN TRIALS, and the other 50% will be NO-WIN TRIALS.","0","html-button-response","4","60141","0.0-2.0-2.0","female","18","Australia ","15544","24847","neither","neither","imgNWTK/KeepItSecret.jpg","imgNWTK/FindOutNow.jpg","info","eq","2.92","","","","","","","","","","","","","",""
"3845","<p> There will be <b>four blocks</b> in the experiment.</br>You will be given a short 15 second break between each block.</p><p><b>The points and the options will remain the same between the blocks.</b></p>The blocks are there just to give you a small break.</br></br><p>The points you earn in the task are also equal to <b> actual money</b>.</br> <b>1000 points is equal to $1.</b></p><p>This is the rate you will be paid at the experiment's end.","0","html-button-response","5","63987","0.0-2.0-3.0","female","18","Australia ","15544","24847","neither","neither","imgNWTK/KeepItSecret.jpg","imgNWTK/FindOutNow.jpg","info","eq","2.92","","","","","","","","","","","","","",""
"17944","","","survey-multi-choice","6","81940","0.0-2.0-4.0","female","18","Australia ","15544","24847","neither","neither","imgNWTK/KeepItSecret.jpg","imgNWTK/FindOutNow.jpg","info","eq","2.92","{""Q0"":""20 Seconds"",""Q1"":""True"",""Q2"":""Equally"",""Q3"":""True""}","","","","","","","","","","","","",""
"1581","<p> Well done, all your answers were correct! <br> The experiment is about to start now. <br/> Click start to continue, or email your researcher <b>(amy.x.li@unsw.edu.au)</b> if you have any questions before starting.","0","html-button-response","7","83523","0.0-3.0","female","18","Australia ","15544","24847","neither","neither","imgNWTK/KeepItSecret.jpg","imgNWTK/FindOutNow.jpg","info","eq","2.92","","","","","","","","","","","","","",""
"2098","","","bandit-task-exp6","8","108642","0.0-4.0-0.0","female","18","Australia ","15544","24847","neither","neither","imgNWTK/KeepItSecret.jpg","imgNWTK/FindOutNow.jpg","info","eq","2.92","","1","1","2","0","null","imgNWTK/KeepItSecret.jpg","imgNWTK/FindOutNow.jpg","imgNWTK/KeepItSecret.jpg","NaN","NaN","","",""
"994","","","bandit-task-exp6","9","132026","0.0-4.0-0.1","female","18","Australia ","15544","24847","neither","neither","imgNWTK/KeepItSecret.jpg","imgNWTK/FindOutNow.jpg","info","eq","2.92","","2","2","1","0","null","imgNWTK/KeepItSecret.jpg","imgNWTK/FindOutNow.jpg","imgNWTK/FindOutNow.jpg","NaN","NaN","","",""
"2195","","","bandit-task-exp6","10","157128","0.0-4.0-0.2","female","18","Australia ","15544","24847","neither","neither","imgNWTK/KeepItSecret.jpg","imgNWTK/FindOutNow.jpg","info","eq","2.92","","3","1","1","106","null","imgNWTK/FindOutNow.jpg","imgNWTK/KeepItSecret.jpg","imgNWTK/KeepItSecret.jpg","NaN","NaN","","",""
"1414","","","bandit-task-exp6","11","180967","0.0-4.0-0.3","female","18","Australia ","15544","24847","neither","neither","imgNWTK/KeepItSecret.jpg","imgNWTK/FindOutNow.jpg","info","eq","2.92","","4","2","1","0","null","imgNWTK/KeepItSecret.jpg","imgNWTK/FindOutNow.jpg","imgNWTK/FindOutNow.jpg","NaN","NaN","","",""
"1344","","","bandit-task-exp6","12","205083","0.0-4.0-0.4","female","18","Australia ","15544","24847","neither","neither","imgNWTK/KeepItSecret.jpg","imgNWTK/FindOutNow.jpg","info","eq","2.92","","5","2","1","0","null","imgNWTK/KeepItSecret.jpg","imgNWTK/FindOutNow.jpg","imgNWTK/FindOutNow.jpg","NaN","NaN","","",""
"1046","","","bandit-task-exp6","13","233119","0.0-4.0-0.5","female","18","Australia ","15544","24847","neither","neither","imgNWTK/KeepItSecret.jpg","imgNWTK/FindOutNow.jpg","info","eq","2.92","","6","2","1","0","null","imgNWTK/KeepItSecret.jpg","imgNWTK/FindOutNow.jpg","imgNWTK/FindOutNow.jpg","NaN","NaN","","",""
"1763","","","bandit-task-exp6","14","257373","0.0-4.0-0.6","female","18","Australia ","15544","24847","neither","neither","imgNWTK/KeepItSecret.jpg","imgNWTK/FindOutNow.jpg","info","eq","2.92","","7","2","1","0","null","imgNWTK/KeepItSecret.jpg","imgNWTK/FindOutNow.jpg","imgNWTK/FindOutNow.jpg","NaN","NaN","","",""
"1914","","","bandit-task-exp6","15","282524","0.0-4.0-0.7","female","18","Australia ","15544","24847","neither","neither","imgNWTK/KeepItSecret.jpg","imgNWTK/FindOutNow.jpg","info","eq","2.92","","8","1","1","104","null","imgNWTK/KeepItSecret.jpg","imgNWTK/FindOutNow.jpg","imgNWTK/KeepItSecret.jpg","NaN","NaN","","",""
"1446","","","bandit-task-exp6","16","312428","0.0-4.0-0.8","female","18","Australia ","15544","24847","neither","neither","imgNWTK/KeepItSecret.jpg","imgNWTK/FindOutNow.jpg","info","eq","2.92","","9","2","1","0","null","imgNWTK/FindOutNow.jpg","imgNWTK/KeepItSecret.jpg","imgNWTK/FindOutNow.jpg","NaN","NaN","","",""
"2697","","","bandit-task-exp6","17","342730","0.0-4.0-0.9","female","18","Australia ","15544","24847","neither","neither","imgNWTK/KeepItSecret.jpg","imgNWTK/FindOutNow.jpg","info","eq","2.92","","10","2","2","102","null","imgNWTK/FindOutNow.jpg","imgNWTK/KeepItSecret.jpg","imgNWTK/FindOutNow.jpg","NaN","NaN","","",""
"9831","","","bandit-task-exp6","18","375600","0.0-4.0-0.10","female","18","Australia ","15544","24847","neither","neither","imgNWTK/KeepItSecret.jpg","imgNWTK/FindOutNow.jpg","info","eq","2.92","","11","1","1","109","null","imgNWTK/KeepItSecret.jpg","imgNWTK/FindOutNow.jpg","imgNWTK/KeepItSecret.jpg","NaN","NaN","","",""
"880","","","bandit-task-exp6","19","398819","0.0-4.0-0.11","female","18","Australia ","15544","24847","neither","neither","imgNWTK/KeepItSecret.jpg","imgNWTK/FindOutNow.jpg","info","eq","2.92","","12","2","2","96","null","imgNWTK/FindOutNow.jpg","imgNWTK/KeepItSecret.jpg","imgNWTK/FindOutNow.jpg","NaN","NaN","","",""
"1064","","","bandit-task-exp6","20","426105","0.0-4.0-0.12","female","18","Australia ","15544","24847","neither","neither","imgNWTK/KeepItSecret.jpg","imgNWTK/FindOutNow.jpg","info","eq","2.92","","13","1","1","110","null","imgNWTK/KeepItSecret.jpg","imgNWTK/FindOutNow.jpg","imgNWTK/KeepItSecret.jpg","NaN","NaN","","",""
"1064","","","bandit-task-exp6","21","451761","0.0-4.0-0.13","female","18","Australia ","15544","24847","neither","neither","imgNWTK/KeepItSecret.jpg","imgNWTK/FindOutNow.jpg","info","eq","2.92","","14","2","2","106","null","imgNWTK/FindOutNow.jpg","imgNWTK/KeepItSecret.jpg","imgNWTK/FindOutNow.jpg","NaN","NaN","","",""
"1177","","","bandit-task-exp6","22","475595","0.0-4.0-0.14","female","18","Australia ","15544","24847","neither","neither","imgNWTK/KeepItSecret.jpg","imgNWTK/FindOutNow.jpg","info","eq","2.92","","15","1","1","96","null","imgNWTK/KeepItSecret.jpg","imgNWTK/FindOutNow.jpg","imgNWTK/KeepItSecret.jpg","NaN","NaN","","",""
"null","<p><b> Congratulations, you have finished this block. </b> </p><p>Please take a short break before moving onto the next block.</p><p>The next block will start after a 15 second break.</p><b>Remember, the point rewards are the same between blocks","","html-keyboard-response","23","490597","0.0-5.0","female","18","Australia ","15544","24847","neither","neither","imgNWTK/KeepItSecret.jpg","imgNWTK/FindOutNow.jpg","info","eq","2.92","","","","","","","","","","","","null","",""
"3378","","","bandit-task-exp6","24","522281","0.0-6.0-0.0","female","18","Australia ","15544","24847","neither","neither","imgNWTK/KeepItSecret.jpg","imgNWTK/FindOutNow.jpg","info","eq","2.92","","16","1","1","101","null","imgNWTK/KeepItSecret.jpg","imgNWTK/FindOutNow.jpg","imgNWTK/KeepItSecret.jpg","NaN","NaN","","",""
"1264","","","bandit-task-exp6","25","546233","0.0-6.0-0.1","female","18","Australia ","15544","24847","neither","neither","imgNWTK/KeepItSecret.jpg","imgNWTK/FindOutNow.jpg","info","eq","2.92","","17","2","1","0","null","imgNWTK/FindOutNow.jpg","imgNWTK/KeepItSecret.jpg","imgNWTK/FindOutNow.jpg","NaN","NaN","","",""
"1713","","","bandit-task-exp6","26","584203","0.0-6.0-0.2","female","18","Australia ","15544","24847","neither","neither","imgNWTK/KeepItSecret.jpg","imgNWTK/FindOutNow.jpg","info","eq","2.92","","18","2","1","0","null","imgNWTK/FindOutNow.jpg","imgNWTK/KeepItSecret.jpg","imgNWTK/FindOutNow.jpg","NaN","NaN","","",""
"1399","","","bandit-task-exp6","27","609023","0.0-6.0-0.3","female","18","Australia ","15544","24847","neither","neither","imgNWTK/KeepItSecret.jpg","imgNWTK/FindOutNow.jpg","info","eq","2.92","","19","1","2","0","null","imgNWTK/KeepItSecret.jpg","imgNWTK/FindOutNow.jpg","imgNWTK/KeepItSecret.jpg","NaN","NaN","","",""
"5513","","","bandit-task-exp6","28","638244","0.0-6.0-0.4","female","18","Australia ","15544","24847","neither","neither","imgNWTK/KeepItSecret.jpg","imgNWTK/FindOutNow.jpg","info","eq","2.92","","20","2","2","98","null","imgNWTK/KeepItSecret.jpg","imgNWTK/FindOutNow.jpg","imgNWTK/FindOutNow.jpg","NaN","NaN","","",""
"930","","","bandit-task-exp6","29","663878","0.0-6.0-0.5","female","18","Australia ","15544","24847","neither","neither","imgNWTK/KeepItSecret.jpg","imgNWTK/FindOutNow.jpg","info","eq","2.92","","21","1","2","0","null","imgNWTK/FindOutNow.jpg","imgNWTK/KeepItSecret.jpg","imgNWTK/KeepItSecret.jpg","NaN","NaN","","",""
"2598","","","bandit-task-exp6","30","690615","0.0-6.0-0.6","female","18","Australia ","15544","24847","neither","neither","imgNWTK/KeepItSecret.jpg","imgNWTK/FindOutNow.jpg","info","eq","2.92","","22","1","1","106","null","imgNWTK/KeepItSecret.jpg","imgNWTK/FindOutNow.jpg","imgNWTK/KeepItSecret.jpg","NaN","NaN","","",""
"1929","","","bandit-task-exp6","31","715900","0.0-6.0-0.7","female","18","Australia ","15544","24847","neither","neither","imgNWTK/KeepItSecret.jpg","imgNWTK/FindOutNow.jpg","info","eq","2.92","","23","1","1","103","null","imgNWTK/FindOutNow.jpg","imgNWTK/KeepItSecret.jpg","imgNWTK/KeepItSecret.jpg","NaN","NaN","","",""
"1347","","","bandit-task-exp6","32","742136","0.0-6.0-0.8","female","18","Australia ","15544","24847","neither","neither","imgNWTK/KeepItSecret.jpg","imgNWTK/FindOutNow.jpg","info","eq","2.92","","24","1","2","0","null","imgNWTK/FindOutNow.jpg","imgNWTK/KeepItSecret.jpg","imgNWTK/KeepItSecret.jpg","NaN","NaN","","",""
"1033","","","bandit-task-exp6","33","766140","0.0-6.0-0.9","female","18","Australia ","15544","24847","neither","neither","imgNWTK/KeepItSecret.jpg","imgNWTK/FindOutNow.jpg","info","eq","2.92","","25","1","1","95","null","imgNWTK/KeepItSecret.jpg","imgNWTK/FindOutNow.jpg","imgNWTK/KeepItSecret.jpg","NaN","NaN","","",""
"796","","","bandit-task-exp6","34","789709","0.0-6.0-0.10","female","18","Australia ","15544","24847","neither","neither","imgNWTK/KeepItSecret.jpg","imgNWTK/FindOutNow.jpg","info","eq","2.92","","26","2","1","0","null","imgNWTK/FindOutNow.jpg","imgNWTK/KeepItSecret.jpg","imgNWTK/FindOutNow.jpg","NaN","NaN","","",""
"912","","","bandit-task-exp6","35","813577","0.0-6.0-0.11","female","18","Australia ","15544","24847","neither","neither","imgNWTK/KeepItSecret.jpg","imgNWTK/FindOutNow.jpg","info","eq","2.92","","27","2","1","0","null","imgNWTK/FindOutNow.jpg","imgNWTK/KeepItSecret.jpg","imgNWTK/FindOutNow.jpg","NaN","NaN","","",""
"713","","","bandit-task-exp6","36","837380","0.0-6.0-0.12","female","18","Australia ","15544","24847","neither","neither","imgNWTK/KeepItSecret.jpg","imgNWTK/FindOutNow.jpg","info","eq","2.92","","28","2","1","0","null","imgNWTK/FindOutNow.jpg","imgNWTK/KeepItSecret.jpg","imgNWTK/FindOutNow.jpg","NaN","NaN","","",""
"1513","","","bandit-task-exp6","37","873316","0.0-6.0-0.13","female","18","Australia ","15544","24847","neither","neither","imgNWTK/KeepItSecret.jpg","imgNWTK/FindOutNow.jpg","info","eq","2.92","","29","1","1","104","null","imgNWTK/KeepItSecret.jpg","imgNWTK/FindOutNow.jpg","imgNWTK/KeepItSecret.jpg","NaN","NaN","","",""
"2412","","","bandit-task-exp6","38","899651","0.0-6.0-0.14","female","18","Australia ","15544","24847","neither","neither","imgNWTK/KeepItSecret.jpg","imgNWTK/FindOutNow.jpg","info","eq","2.92","","30","1","2","0","null","imgNWTK/KeepItSecret.jpg","imgNWTK/FindOutNow.jpg","imgNWTK/KeepItSecret.jpg","NaN","NaN","","",""
"null","<p><b> Congratulations, you have finished this block. </b> </p><p>Please take a short break before moving onto the next block.</p><p>The next block will start after a 15 second break.</p><b>Remember, the point rewards are the same between blocks","","html-keyboard-response","39","914655","0.0-7.0","female","18","Australia ","15544","24847","neither","neither","imgNWTK/KeepItSecret.jpg","imgNWTK/FindOutNow.jpg","info","eq","2.92","","","","","","","","","","","","null","",""
"5498","","","bandit-task-exp6","40","945023","0.0-8.0-0.0","female","18","Australia ","15544","24847","neither","neither","imgNWTK/KeepItSecret.jpg","imgNWTK/FindOutNow.jpg","info","eq","2.92","","31","2","1","0","null","imgNWTK/FindOutNow.jpg","imgNWTK/KeepItSecret.jpg","imgNWTK/FindOutNow.jpg","NaN","NaN","","",""
"998","","","bandit-task-exp6","41","969125","0.0-8.0-0.1","female","18","Australia ","15544","24847","neither","neither","imgNWTK/KeepItSecret.jpg","imgNWTK/FindOutNow.jpg","info","eq","2.92","","32","2","1","0","null","imgNWTK/FindOutNow.jpg","imgNWTK/KeepItSecret.jpg","imgNWTK/FindOutNow.jpg","NaN","NaN","","",""
"3998","","","bandit-task-exp6","42","997528","0.0-8.0-0.2","female","18","Australia ","15544","24847","neither","neither","imgNWTK/KeepItSecret.jpg","imgNWTK/FindOutNow.jpg","info","eq","2.92","","33","1","1","93","null","imgNWTK/KeepItSecret.jpg","imgNWTK/FindOutNow.jpg","imgNWTK/KeepItSecret.jpg","NaN","NaN","","",""
"1283","","","bandit-task-exp6","43","1022630","0.0-8.0-0.3","female","18","Australia ","15544","24847","neither","neither","imgNWTK/KeepItSecret.jpg","imgNWTK/FindOutNow.jpg","info","eq","2.92","","34","1","1","104","null","imgNWTK/KeepItSecret.jpg","imgNWTK/FindOutNow.jpg","imgNWTK/KeepItSecret.jpg","NaN","NaN","","",""
"1682","","","bandit-task-exp6","44","1047430","0.0-8.0-0.4","female","18","Australia ","15544","24847","neither","neither","imgNWTK/KeepItSecret.jpg","imgNWTK/FindOutNow.jpg","info","eq","2.92","","35","1","2","0","null","imgNWTK/KeepItSecret.jpg","imgNWTK/FindOutNow.jpg","imgNWTK/KeepItSecret.jpg","NaN","NaN","","",""
"1378","","","bandit-task-exp6","45","1073047","0.0-8.0-0.5","female","18","Australia ","15544","24847","neither","neither","imgNWTK/KeepItSecret.jpg","imgNWTK/FindOutNow.jpg","info","eq","2.92","","36","1","1","104","null","imgNWTK/FindOutNow.jpg","imgNWTK/KeepItSecret.jpg","imgNWTK/KeepItSecret.jpg","NaN","NaN","","",""
"1515","","","bandit-task-exp6","46","1100851","0.0-8.0-0.6","female","18","Australia ","15544","24847","neither","neither","imgNWTK/KeepItSecret.jpg","imgNWTK/FindOutNow.jpg","info","eq","2.92","","37","2","1","0","null","imgNWTK/KeepItSecret.jpg","imgNWTK/FindOutNow.jpg","imgNWTK/FindOutNow.jpg","NaN","NaN","","",""
"1981","","","bandit-task-exp6","47","1125686","0.0-8.0-0.7","female","18","Australia ","15544","24847","neither","neither","imgNWTK/KeepItSecret.jpg","imgNWTK/FindOutNow.jpg","info","eq","2.92","","38","2","2","100","null","imgNWTK/KeepItSecret.jpg","imgNWTK/FindOutNow.jpg","imgNWTK/FindOutNow.jpg","NaN","NaN","","",""
"1399","","","bandit-task-exp6","48","1163758","0.0-8.0-0.8","female","18","Australia ","15544","24847","neither","neither","imgNWTK/KeepItSecret.jpg","imgNWTK/FindOutNow.jpg","info","eq","2.92","","39","2","1","0","null","imgNWTK/KeepItSecret.jpg","imgNWTK/FindOutNow.jpg","imgNWTK/FindOutNow.jpg","NaN","NaN","","",""
"679","","","bandit-task-exp6","49","1217214","0.0-8.0-0.9","female","18","Australia ","15544","24847","neither","neither","imgNWTK/KeepItSecret.jpg","imgNWTK/FindOutNow.jpg","info","eq","2.92","","40","1","1","93","null","imgNWTK/KeepItSecret.jpg","imgNWTK/FindOutNow.jpg","imgNWTK/KeepItSecret.jpg","NaN","NaN","","",""
"7332","","","bandit-task-exp6","50","1249881","0.0-8.0-0.10","female","18","Australia ","15544","24847","neither","neither","imgNWTK/KeepItSecret.jpg","imgNWTK/FindOutNow.jpg","info","eq","2.92","","41","2","2","100","null","imgNWTK/FindOutNow.jpg","imgNWTK/KeepItSecret.jpg","imgNWTK/FindOutNow.jpg","NaN","NaN","","",""
"716","","","bandit-task-exp6","51","1274184","0.0-8.0-0.11","female","18","Australia ","15544","24847","neither","neither","imgNWTK/KeepItSecret.jpg","imgNWTK/FindOutNow.jpg","info","eq","2.92","","42","1","2","0","null","imgNWTK/KeepItSecret.jpg","imgNWTK/FindOutNow.jpg","imgNWTK/KeepItSecret.jpg","NaN","NaN","","",""
"4399","","","bandit-task-exp6","52","1301954","0.0-8.0-0.12","female","18","Australia ","15544","24847","neither","neither","imgNWTK/KeepItSecret.jpg","imgNWTK/FindOutNow.jpg","info","eq","2.92","","43","2","2","90","null","imgNWTK/FindOutNow.jpg","imgNWTK/KeepItSecret.jpg","imgNWTK/FindOutNow.jpg","NaN","NaN","","",""
"1681","","","bandit-task-exp6","53","1327756","0.0-8.0-0.13","female","18","Australia ","15544","24847","neither","neither","imgNWTK/KeepItSecret.jpg","imgNWTK/FindOutNow.jpg","info","eq","2.92","","44","2","2","97","null","imgNWTK/FindOutNow.jpg","imgNWTK/KeepItSecret.jpg","imgNWTK/FindOutNow.jpg","NaN","NaN","","",""
"1181","","","bandit-task-exp6","54","1352426","0.0-8.0-0.14","female","18","Australia ","15544","24847","neither","neither","imgNWTK/KeepItSecret.jpg","imgNWTK/FindOutNow.jpg","info","eq","2.92","","45","1","2","0","null","imgNWTK/KeepItSecret.jpg","imgNWTK/FindOutNow.jpg","imgNWTK/KeepItSecret.jpg","NaN","NaN","","",""
"null","<p><b> Congratulations, you have finished this block. </b> </p><p>Please take a short break before moving onto the next block.</p><p>The next block will start after a 15 second break.</p><b>Remember, the point rewards are the same between blocks","","html-keyboard-response","55","1367429","0.0-9.0","female","18","Australia ","15544","24847","neither","neither","imgNWTK/KeepItSecret.jpg","imgNWTK/FindOutNow.jpg","info","eq","2.92","","","","","","","","","","","","null","",""
"21713","","","bandit-task-exp6","56","1412348","0.0-10.0-0.0","female","18","Australia ","15544","24847","neither","neither","imgNWTK/KeepItSecret.jpg","imgNWTK/FindOutNow.jpg","info","eq","2.92","","46","1","2","0","null","imgNWTK/KeepItSecret.jpg","imgNWTK/FindOutNow.jpg","imgNWTK/KeepItSecret.jpg","96","100","","",""
"8930","","","bandit-task-exp6","57","1443588","0.0-10.0-0.1","female","18","Australia ","15544","24847","neither","neither","imgNWTK/KeepItSecret.jpg","imgNWTK/FindOutNow.jpg","info","eq","2.92","","47","2","1","0","null","imgNWTK/KeepItSecret.jpg","imgNWTK/FindOutNow.jpg","imgNWTK/FindOutNow.jpg","100","100","","",""
"5475","","","bandit-task-exp6","58","1471921","0.0-10.0-0.2","female","18","Australia ","15544","24847","neither","neither","imgNWTK/KeepItSecret.jpg","imgNWTK/FindOutNow.jpg","info","eq","2.92","","48","2","2","110","null","imgNWTK/FindOutNow.jpg","imgNWTK/KeepItSecret.jpg","imgNWTK/FindOutNow.jpg","100","100","","",""
"6313","","","bandit-task-exp6","59","1504240","0.0-10.0-0.3","female","18","Australia ","15544","24847","neither","neither","imgNWTK/KeepItSecret.jpg","imgNWTK/FindOutNow.jpg","info","eq","2.92","","49","2","2","100","null","imgNWTK/KeepItSecret.jpg","imgNWTK/FindOutNow.jpg","imgNWTK/FindOutNow.jpg","100","100","","",""
"5249","","","bandit-task-exp6","60","1531975","0.0-10.0-0.4","female","18","Australia ","15544","24847","neither","neither","imgNWTK/KeepItSecret.jpg","imgNWTK/FindOutNow.jpg","info","eq","2.92","","50","2","2","94","null","imgNWTK/FindOutNow.jpg","imgNWTK/KeepItSecret.jpg","imgNWTK/FindOutNow.jpg","100","100","","",""
"4764","","","bandit-task-exp6","61","1561712","0.0-10.0-0.5","female","18","Australia ","15544","24847","neither","neither","imgNWTK/KeepItSecret.jpg","imgNWTK/FindOutNow.jpg","info","eq","2.92","","51","1","2","0","null","imgNWTK/KeepItSecret.jpg","imgNWTK/FindOutNow.jpg","imgNWTK/KeepItSecret.jpg","100","100","","",""
"5665","","","bandit-task-exp6","62","1589799","0.0-10.0-0.6","female","18","Australia ","15544","24847","neither","neither","imgNWTK/KeepItSecret.jpg","imgNWTK/FindOutNow.jpg","info","eq","2.92","","52","2","2","97","null","imgNWTK/FindOutNow.jpg","imgNWTK/KeepItSecret.jpg","imgNWTK/FindOutNow.jpg","100","100","","",""
"4180","","","bandit-task-exp6","63","1617717","0.0-10.0-0.7","female","18","Australia ","15544","24847","neither","neither","imgNWTK/KeepItSecret.jpg","imgNWTK/FindOutNow.jpg","info","eq","2.92","","53","2","1","0","null","imgNWTK/FindOutNow.jpg","imgNWTK/KeepItSecret.jpg","imgNWTK/FindOutNow.jpg","100","100","","",""
"4097","","","bandit-task-exp6","64","1645905","0.0-10.0-0.8","female","18","Australia ","15544","24847","neither","neither","imgNWTK/KeepItSecret.jpg","imgNWTK/FindOutNow.jpg","info","eq","2.92","","54","2","1","0","null","imgNWTK/FindOutNow.jpg","imgNWTK/KeepItSecret.jpg","imgNWTK/FindOutNow.jpg","100","100","","",""
"4881","","","bandit-task-exp6","65","1676458","0.0-10.0-0.9","female","18","Australia ","15544","24847","neither","neither","imgNWTK/KeepItSecret.jpg","imgNWTK/FindOutNow.jpg","info","eq","2.92","","55","1","2","0","null","imgNWTK/KeepItSecret.jpg","imgNWTK/FindOutNow.jpg","imgNWTK/KeepItSecret.jpg","100","100","","",""
"15580","","","bandit-task-exp6","66","1715128","0.0-10.0-0.10","female","18","Australia ","15544","24847","neither","neither","imgNWTK/KeepItSecret.jpg","imgNWTK/FindOutNow.jpg","info","eq","2.92","","56","2","2","107","null","imgNWTK/KeepItSecret.jpg","imgNWTK/FindOutNow.jpg","imgNWTK/FindOutNow.jpg","100","100","","",""
"7481","","","bandit-task-exp6","67","1747097","0.0-10.0-0.11","female","18","Australia ","15544","24847","neither","neither","imgNWTK/KeepItSecret.jpg","imgNWTK/FindOutNow.jpg","info","eq","2.92","","57","1","2","0","null","imgNWTK/KeepItSecret.jpg","imgNWTK/FindOutNow.jpg","imgNWTK/KeepItSecret.jpg","100","100","","",""
"5497","","","bandit-task-exp6","68","1803792","0.0-10.0-0.12","female","18","Australia ","15544","24847","neither","neither","imgNWTK/KeepItSecret.jpg","imgNWTK/FindOutNow.jpg","info","eq","2.92","","58","2","1","0","null","imgNWTK/FindOutNow.jpg","imgNWTK/KeepItSecret.jpg","imgNWTK/FindOutNow.jpg","100","100","","",""
"4590","","","bandit-task-exp6","69","1832624","0.0-10.0-0.13","female","18","Australia ","15544","24847","neither","neither","imgNWTK/KeepItSecret.jpg","imgNWTK/FindOutNow.jpg","info","eq","2.92","","59","2","2","98","null","imgNWTK/FindOutNow.jpg","imgNWTK/KeepItSecret.jpg","imgNWTK/FindOutNow.jpg","100","100","","",""
"6980","","","bandit-task-exp6","70","1862010","0.0-10.0-0.14","female","18","Australia ","15544","24847","neither","neither","imgNWTK/KeepItSecret.jpg","imgNWTK/FindOutNow.jpg","info","eq","2.92","","60","2","2","93","null","imgNWTK/FindOutNow.jpg","imgNWTK/KeepItSecret.jpg","imgNWTK/FindOutNow.jpg","100","100","","",""
"3230","<p> Congratulations, you have finished the main part of the experiment. </p><p>Before you finish, we have a few short questions about the options and outcomes you saw in the task.</p>","0","html-button-response","71","1865241","0.0-11.0","female","18","Australia ","15544","24847","neither","neither","imgNWTK/KeepItSecret.jpg","imgNWTK/FindOutNow.jpg","info","eq","2.92","","","","","","","","","","","","","",""
"5000","<p><b>Now, imagine that you clicked on the below button for another 10 trials (this includes <i> BOTH WIN and NO-WIN trials</i>).</p> <img src= 'imgNWTK/KeepItSecret.jpg'></img></br></br> <p><b>Please type the reward (number of points) you would expect to receive on every trial.</br> Click start to begin.</p>","0","html-button-response","72","1870242","0.0-12.0","female","18","Australia ","15544","24847","neither","neither","imgNWTK/KeepItSecret.jpg","imgNWTK/FindOutNow.jpg","info","eq","2.92","","","","","","","","","","","","","",""
"16480.79999999702","","","survey-number","73","1886728","0.0-13.0-0.0","female","18","Australia ","15544","24847","neither","neither","imgNWTK/KeepItSecret.jpg","imgNWTK/FindOutNow.jpg","info","eq","2.92","{""undefined"":""4""}","","","","","","","","","","","","imgNWTK/KeepItSecret.jpg",""
"2682.2000000029802","","","survey-number","74","1889415","0.0-13.0-0.1","female","18","Australia ","15544","24847","neither","neither","imgNWTK/KeepItSecret.jpg","imgNWTK/FindOutNow.jpg","info","eq","2.92","{""undefined"":""3""}","","","","","","","","","","","","imgNWTK/KeepItSecret.jpg",""
"660.0999999940395","","","survey-number","75","1890078","0.0-13.0-0.2","female","18","Australia ","15544","24847","neither","neither","imgNWTK/KeepItSecret.jpg","imgNWTK/FindOutNow.jpg","info","eq","2.92","{""undefined"":""4""}","","","","","","","","","","","","imgNWTK/KeepItSecret.jpg",""
"814.7999999970198","","","survey-number","76","1890896","0.0-13.0-0.3","female","18","Australia ","15544","24847","neither","neither","imgNWTK/KeepItSecret.jpg","imgNWTK/FindOutNow.jpg","info","eq","2.92","{""undefined"":""4""}","","","","","","","","","","","","imgNWTK/KeepItSecret.jpg",""
"630.2999999970198","","","survey-number","77","1891530","0.0-13.0-0.4","female","18","Australia ","15544","24847","neither","neither","imgNWTK/KeepItSecret.jpg","imgNWTK/FindOutNow.jpg","info","eq","2.92","{""undefined"":""1""}","","","","","","","","","","","","imgNWTK/KeepItSecret.jpg",""
"679","","","survey-number","78","1892212","0.0-13.0-0.5","female","18","Australia ","15544","24847","neither","neither","imgNWTK/KeepItSecret.jpg","imgNWTK/FindOutNow.jpg","info","eq","2.92","{""undefined"":""2""}","","","","","","","","","","","","imgNWTK/KeepItSecret.jpg",""
"3614.2000000029802","","","survey-number","79","1895829","0.0-13.0-0.6","female","18","Australia ","15544","24847","neither","neither","imgNWTK/KeepItSecret.jpg","imgNWTK/FindOutNow.jpg","info","eq","2.92","{""undefined"":""0""}","","","","","","","","","","","","imgNWTK/KeepItSecret.jpg",""
"2225.7000000029802","","","survey-number","80","1898061","0.0-13.0-0.7","female","18","Australia ","15544","24847","neither","neither","imgNWTK/KeepItSecret.jpg","imgNWTK/FindOutNow.jpg","info","eq","2.92","{""undefined"":""96""}","","","","","","","","","","","","imgNWTK/KeepItSecret.jpg",""
"4002","","","survey-number","81","1902068","0.0-13.0-0.8","female","18","Australia ","15544","24847","neither","neither","imgNWTK/KeepItSecret.jpg","imgNWTK/FindOutNow.jpg","info","eq","2.92","{""undefined"":""110""}","","","","","","","","","","","","imgNWTK/KeepItSecret.jpg",""
"1439.5999999940395","","","survey-number","82","1903514","0.0-13.0-0.9","female","18","Australia ","15544","24847","neither","neither","imgNWTK/KeepItSecret.jpg","imgNWTK/FindOutNow.jpg","info","eq","2.92","{""undefined"":""0""}","","","","","","","","","","","","imgNWTK/KeepItSecret.jpg",""
"37867","<p><b>Imagine that you clicked on the below button for another 10 trials (this includes <i> both WIN and NO-WIN trials</i>).</p> <img src= 'imgNWTK/FindOutNow.jpg'></img></br></br> <p><b>Please type the reward (number of points) you would expect to receive on every trial.</br> Click start to begin.</p>","0","html-button-response","83","1941383","0.0-14.0","female","18","Australia ","15544","24847","neither","neither","imgNWTK/KeepItSecret.jpg","imgNWTK/FindOutNow.jpg","info","eq","2.92","","","","","","","","","","","","","",""
"1600.6000000089407","","","survey-number","84","1942986","0.0-15.0-0.0","female","18","Australia ","15544","24847","neither","neither","imgNWTK/KeepItSecret.jpg","imgNWTK/FindOutNow.jpg","info","eq","2.92","{""undefined"":""110""}","","","","","","","","","","","","imgNWTK/FindOutNow.jpg",""
"2946.7999999970198","","","survey-number","85","1945937","0.0-15.0-0.1","female","18","Australia ","15544","24847","neither","neither","imgNWTK/KeepItSecret.jpg","imgNWTK/FindOutNow.jpg","info","eq","2.92","{""undefined"":""96""}","","","","","","","","","","","","imgNWTK/FindOutNow.jpg",""
"1048.7999999970198","","","survey-number","86","1946995","0.0-15.0-0.2","female","18","Australia ","15544","24847","neither","neither","imgNWTK/KeepItSecret.jpg","imgNWTK/FindOutNow.jpg","info","eq","2.92","{""undefined"":""0""}","","","","","","","","","","","","imgNWTK/FindOutNow.jpg",""
"771.0999999940395","","","survey-number","87","1947770","0.0-15.0-0.3","female","18","Australia ","15544","24847","neither","neither","imgNWTK/KeepItSecret.jpg","imgNWTK/FindOutNow.jpg","info","eq","2.92","{""undefined"":""0""}","","","","","","","","","","","","imgNWTK/FindOutNow.jpg",""
"3704.9000000059605","","","survey-number","88","1951479","0.0-15.0-0.4","female","18","Australia ","15544","24847","neither","neither","imgNWTK/KeepItSecret.jpg","imgNWTK/FindOutNow.jpg","info","eq","2.92","{""undefined"":""110""}","","","","","","","","","","","","imgNWTK/FindOutNow.jpg",""
"1044","","","survey-number","89","1952527","0.0-15.0-0.5","female","18","Australia ","15544","24847","neither","neither","imgNWTK/KeepItSecret.jpg","imgNWTK/FindOutNow.jpg","info","eq","2.92","{""undefined"":""0""}","","","","","","","","","","","","imgNWTK/FindOutNow.jpg",""
"373.59999999403954","","","survey-number","90","1952904","0.0-15.0-0.6","female","18","Australia ","15544","24847","neither","neither","imgNWTK/KeepItSecret.jpg","imgNWTK/FindOutNow.jpg","info","eq","2.92","{""undefined"":""0""}","","","","","","","","","","","","imgNWTK/FindOutNow.jpg",""
"525.2000000029802","","","survey-number","91","1953433","0.0-15.0-0.7","female","18","Australia ","15544","24847","neither","neither","imgNWTK/KeepItSecret.jpg","imgNWTK/FindOutNow.jpg","info","eq","2.92","{""undefined"":""0""}","","","","","","","","","","","","imgNWTK/FindOutNow.jpg",""
"1425.3999999910593","","","survey-number","92","1954863","0.0-15.0-0.8","female","18","Australia ","15544","24847","neither","neither","imgNWTK/KeepItSecret.jpg","imgNWTK/FindOutNow.jpg","info","eq","2.92","{""undefined"":""96""}","","","","","","","","","","","","imgNWTK/FindOutNow.jpg",""
"2006.7000000029802","","","survey-number","93","1956874","0.0-15.0-0.9","female","18","Australia ","15544","24847","neither","neither","imgNWTK/KeepItSecret.jpg","imgNWTK/FindOutNow.jpg","info","eq","2.92","{""undefined"":""113""}","","","","","","","","","","","","imgNWTK/FindOutNow.jpg",""
"12975.79999999702","","","survey-number","94","1969856","0.0-16.0","female","18","Australia ","15544","24847","neither","neither","imgNWTK/KeepItSecret.jpg","imgNWTK/FindOutNow.jpg","info","eq","2.92","{""undefined"":""50""}","","","","","","","","","","","","","imgNWTK/KeepItSecret.jpg"
"1640","","","survey-number","95","1971502","0.0-17.0","female","18","Australia ","15544","24847","neither","neither","imgNWTK/KeepItSecret.jpg","imgNWTK/FindOutNow.jpg","info","eq","2.92","{""undefined"":""50""}","","","","","","","","","","","","","imgNWTK/FindOutNow.jpg"
"10100","<p style=""text-align:left;"">Great! We are almost at the end of the study... (Please do not close the browser window yet.)</p><p> Your final points balance is 2916, which equals to a bonus payment of $2.92. Please collect your payment from Mathews Building Room 721 (Mon-Fri 9am-5pm); please email amy.x.li@unsw.edu.au at least 24 hours prior to collection so that this is ready for you.</p><p style=""text-align:left;"">To view the debriefing form, please click <a href=""./imgNWTK/debrief_3205.pdf"" target=""_blank"">here</a> to download a copy.</p><p style=""text-align:left;"">Then, <b>please click the below button</b> to confirm that you have received your debrief and to complete the study. Upon clicking ""Finish!"", your SONA credit will be automatically assigned.</p>","0","html-button-response","96","1981605","0.0-18.0","female","18","Australia ","15544","24847","neither","neither","imgNWTK/KeepItSecret.jpg","imgNWTK/FindOutNow.jpg","info","eq","2.92","","","","","","","","","","","","","",""
