"rt","stimulus","button_pressed","trial_type","trial_index","time_elapsed","internal_node_id","gender","age","language","PID","sona_id","subStim","optStim","stim1","stim2","infoCond","optimCond","bonus","responses","banditTrial","choice","cue","feedback","estimateData","leftOption","rightOption","choiceName","leftInput","rightInput","key_press","postQ","singleEst"
"7029","<p>Thank you for signing up to participate in SONA Study 465! <br> During this study, please focus on the experiment and refrain from activities such as:</p>- <b>Switching to other tabs on your browser (this will be monitored via the experiment)</br> - Using your mobile phone/cell phone</br> - Communicating with others</br></br></b><p>This way, you are helping to provide data that is useful for psychological research. We thank you for your cooperation!</p>","0","html-button-response","0","7033","0.0-0.0","male","21","Australia","21967","25769","imgNWTK/triangle.png","imgNWTK/square.png","imgNWTK/triangle.png","imgNWTK/square.png","noninfo","optim","3.05","","","","","","","","","","","","","",""
"1362","<p>Welcome to the experiment!</p><p>You will now read some instructions about the task. Press the 'Next' button to continue. </p>","0","html-button-response","1","8397","0.0-1.0","male","21","Australia","21967","25769","imgNWTK/triangle.png","imgNWTK/square.png","imgNWTK/triangle.png","imgNWTK/square.png","noninfo","optim","3.05","","","","","","","","","","","","","",""
"9825","<p> On each trial throughout the experiment you will choose between two options, </br>a <b>Black Square </b> and <b> Black Triangle </b>, as seen below.</p><div><div style= 'float: left; width: 300px; margin: 10px 10px;'><img src= 'imgNWTK/square.png'></img></div><div style= 'float: right; width: 300px; margin: 10px 10px;'><img src= 'imgNWTK/triangle.png'></img></div></div><br/><br/><br/><br/><br/><br/><br/><br/><br/><br/><br/><p>Each option results in winning points or receiving 0 points.</br>There is a 50% chance of either winning or receiving 0 points.</p><p>You won't receive the outcome until after a <b> 20 second delay</b>.</p>","0","html-button-response","2","18223","0.0-2.0-0.0","male","21","Australia","21967","25769","imgNWTK/triangle.png","imgNWTK/square.png","imgNWTK/triangle.png","imgNWTK/square.png","noninfo","optim","3.05","","","","","","","","","","","","","",""
"35260","<img src= 'imgNWTK/NonInfoDiagram.png'></img><p>As seen above, whether you choose the square or triangle, you will receive a coloured circle after the choice. </p> <p>This circle will be on screen for 20 seconds until you win points or receive 0 points.</p><p>The coloured circle depends on which option you chose. </br> In the above example, choosing a triangle leads to a green circle and choosing the square leads to a red circle.</p>Please note: the circles in your task will be different to the above colours.</br></br>","0","html-button-response","3","53486","0.0-2.0-1.0","male","21","Australia","21967","25769","imgNWTK/triangle.png","imgNWTK/square.png","imgNWTK/triangle.png","imgNWTK/square.png","noninfo","optim","3.05","","","","","","","","","","","","","",""
"7284","<img src= 'cues/winTrials_noInfo.png' width = '1200'></img><p>To reiterate, 50% of the outcomes of each option will be WIN TRIALS, and the other 50% will be NO-WIN TRIALS.","0","html-button-response","4","60773","0.0-2.0-2.0","male","21","Australia","21967","25769","imgNWTK/triangle.png","imgNWTK/square.png","imgNWTK/triangle.png","imgNWTK/square.png","noninfo","optim","3.05","","","","","","","","","","","","","",""
"22197","<p> There will be <b>four blocks</b> in the experiment.</br>You will be given a short 15 second break between each block.</p><p><b>The points and the options will remain the same between the blocks.</b></p>The blocks are there just to give you a small break.</br></br></br></br><p>The points you earn in the task are also equal to <b> actual money</b>.</br> <b>1000 points is equal to $1 AUD</b></p><p>This is the rate you will be paid at the experiment's end.","0","html-button-response","5","82973","0.0-2.0-3.0","male","21","Australia","21967","25769","imgNWTK/triangle.png","imgNWTK/square.png","imgNWTK/triangle.png","imgNWTK/square.png","noninfo","optim","3.05","","","","","","","","","","","","","",""
"16137","","","survey-multi-choice","6","99120","0.0-2.0-4.0","male","21","Australia","21967","25769","imgNWTK/triangle.png","imgNWTK/square.png","imgNWTK/triangle.png","imgNWTK/square.png","noninfo","optim","3.05","{""Q0"":""20 Seconds"",""Q1"":""True"",""Q2"":""Equally""}","","","","","","","","","","","","",""
"2374","<p> Well done, all your answers were correct! <br> The experiment is about to start now. <br/> Click start to continue, or email your researcher <b>(amy.x.li@unsw.edu.au)</b> if you have any questions before starting.","0","html-button-response","7","101498","0.0-3.0","male","21","Australia","21967","25769","imgNWTK/triangle.png","imgNWTK/square.png","imgNWTK/triangle.png","imgNWTK/square.png","noninfo","optim","3.05","","","","","","","","","","","","","",""
"1600","","","bandit-task-exp6","8","126664","0.0-4.0-0.0","male","21","Australia","21967","25769","imgNWTK/triangle.png","imgNWTK/square.png","imgNWTK/triangle.png","imgNWTK/square.png","noninfo","optim","3.05","","1","1","1","71","null","imgNWTK/triangle.png","imgNWTK/square.png","imgNWTK/triangle.png","NaN","NaN","","",""
"1827","","","bandit-task-exp6","9","151105","0.0-4.0-0.1","male","21","Australia","21967","25769","imgNWTK/triangle.png","imgNWTK/square.png","imgNWTK/triangle.png","imgNWTK/square.png","noninfo","optim","3.05","","2","2","2","128","null","imgNWTK/square.png","imgNWTK/triangle.png","imgNWTK/square.png","NaN","NaN","","",""
"3354","","","bandit-task-exp6","10","177475","0.0-4.0-0.2","male","21","Australia","21967","25769","imgNWTK/triangle.png","imgNWTK/square.png","imgNWTK/triangle.png","imgNWTK/square.png","noninfo","optim","3.05","","3","2","1","0","null","imgNWTK/square.png","imgNWTK/triangle.png","imgNWTK/square.png","NaN","NaN","","",""
"1102","","","bandit-task-exp6","11","200801","0.0-4.0-0.3","male","21","Australia","21967","25769","imgNWTK/triangle.png","imgNWTK/square.png","imgNWTK/triangle.png","imgNWTK/square.png","noninfo","optim","3.05","","4","2","2","118","null","imgNWTK/triangle.png","imgNWTK/square.png","imgNWTK/square.png","NaN","NaN","","",""
"856","","","bandit-task-exp6","12","223774","0.0-4.0-0.4","male","21","Australia","21967","25769","imgNWTK/triangle.png","imgNWTK/square.png","imgNWTK/triangle.png","imgNWTK/square.png","noninfo","optim","3.05","","5","1","1","80","null","imgNWTK/square.png","imgNWTK/triangle.png","imgNWTK/triangle.png","NaN","NaN","","",""
"680","","","bandit-task-exp6","13","247116","0.0-4.0-0.5","male","21","Australia","21967","25769","imgNWTK/triangle.png","imgNWTK/square.png","imgNWTK/triangle.png","imgNWTK/square.png","noninfo","optim","3.05","","6","2","2","111","null","imgNWTK/square.png","imgNWTK/triangle.png","imgNWTK/square.png","NaN","NaN","","",""
"676","","","bandit-task-exp6","14","270404","0.0-4.0-0.6","male","21","Australia","21967","25769","imgNWTK/triangle.png","imgNWTK/square.png","imgNWTK/triangle.png","imgNWTK/square.png","noninfo","optim","3.05","","7","1","1","87","null","imgNWTK/square.png","imgNWTK/triangle.png","imgNWTK/triangle.png","NaN","NaN","","",""
"678","","","bandit-task-exp6","15","293208","0.0-4.0-0.7","male","21","Australia","21967","25769","imgNWTK/triangle.png","imgNWTK/square.png","imgNWTK/triangle.png","imgNWTK/square.png","noninfo","optim","3.05","","8","2","1","0","null","imgNWTK/square.png","imgNWTK/triangle.png","imgNWTK/square.png","NaN","NaN","","",""
"975","","","bandit-task-exp6","16","316068","0.0-4.0-0.8","male","21","Australia","21967","25769","imgNWTK/triangle.png","imgNWTK/square.png","imgNWTK/triangle.png","imgNWTK/square.png","noninfo","optim","3.05","","9","2","1","0","null","imgNWTK/triangle.png","imgNWTK/square.png","imgNWTK/square.png","NaN","NaN","","",""
"1265","","","bandit-task-exp6","17","339391","0.0-4.0-0.9","male","21","Australia","21967","25769","imgNWTK/triangle.png","imgNWTK/square.png","imgNWTK/triangle.png","imgNWTK/square.png","noninfo","optim","3.05","","10","2","1","0","null","imgNWTK/square.png","imgNWTK/triangle.png","imgNWTK/square.png","NaN","NaN","","",""
"1883","","","bandit-task-exp6","18","363300","0.0-4.0-0.10","male","21","Australia","21967","25769","imgNWTK/triangle.png","imgNWTK/square.png","imgNWTK/triangle.png","imgNWTK/square.png","noninfo","optim","3.05","","11","2","1","0","null","imgNWTK/square.png","imgNWTK/triangle.png","imgNWTK/square.png","NaN","NaN","","",""
"630","","","bandit-task-exp6","19","385859","0.0-4.0-0.11","male","21","Australia","21967","25769","imgNWTK/triangle.png","imgNWTK/square.png","imgNWTK/triangle.png","imgNWTK/square.png","noninfo","optim","3.05","","12","1","1","70","null","imgNWTK/square.png","imgNWTK/triangle.png","imgNWTK/triangle.png","NaN","NaN","","",""
"1145","","","bandit-task-exp6","20","408783","0.0-4.0-0.12","male","21","Australia","21967","25769","imgNWTK/triangle.png","imgNWTK/square.png","imgNWTK/triangle.png","imgNWTK/square.png","noninfo","optim","3.05","","13","2","1","0","null","imgNWTK/triangle.png","imgNWTK/square.png","imgNWTK/square.png","NaN","NaN","","",""
"959","","","bandit-task-exp6","21","431563","0.0-4.0-0.13","male","21","Australia","21967","25769","imgNWTK/triangle.png","imgNWTK/square.png","imgNWTK/triangle.png","imgNWTK/square.png","noninfo","optim","3.05","","14","1","1","75","null","imgNWTK/square.png","imgNWTK/triangle.png","imgNWTK/triangle.png","NaN","NaN","","",""
"1682","","","bandit-task-exp6","22","455198","0.0-4.0-0.14","male","21","Australia","21967","25769","imgNWTK/triangle.png","imgNWTK/square.png","imgNWTK/triangle.png","imgNWTK/square.png","noninfo","optim","3.05","","15","2","1","0","null","imgNWTK/triangle.png","imgNWTK/square.png","imgNWTK/square.png","NaN","NaN","","",""
"null","<p><b> Congratulations, you have finished this block. </b> </p><p>Please take a short break before moving onto the next block.</p><p>The next block will start after a 15 second break.</p><b>Remember, the point rewards are the same between blocks","","html-keyboard-response","23","470205","0.0-5.0","male","21","Australia","21967","25769","imgNWTK/triangle.png","imgNWTK/square.png","imgNWTK/triangle.png","imgNWTK/square.png","noninfo","optim","3.05","","","","","","","","","","","","null","",""
"1203","","","bandit-task-exp6","24","494003","0.0-6.0-0.0","male","21","Australia","21967","25769","imgNWTK/triangle.png","imgNWTK/square.png","imgNWTK/triangle.png","imgNWTK/square.png","noninfo","optim","3.05","","16","2","2","130","null","imgNWTK/square.png","imgNWTK/triangle.png","imgNWTK/square.png","NaN","NaN","","",""
"968","","","bandit-task-exp6","25","517684","0.0-6.0-0.1","male","21","Australia","21967","25769","imgNWTK/triangle.png","imgNWTK/square.png","imgNWTK/triangle.png","imgNWTK/square.png","noninfo","optim","3.05","","17","2","1","0","null","imgNWTK/square.png","imgNWTK/triangle.png","imgNWTK/square.png","NaN","NaN","","",""
"887","","","bandit-task-exp6","26","541744","0.0-6.0-0.2","male","21","Australia","21967","25769","imgNWTK/triangle.png","imgNWTK/square.png","imgNWTK/triangle.png","imgNWTK/square.png","noninfo","optim","3.05","","18","1","1","89","null","imgNWTK/triangle.png","imgNWTK/square.png","imgNWTK/triangle.png","NaN","NaN","","",""
"768","","","bandit-task-exp6","27","565715","0.0-6.0-0.3","male","21","Australia","21967","25769","imgNWTK/triangle.png","imgNWTK/square.png","imgNWTK/triangle.png","imgNWTK/square.png","noninfo","optim","3.05","","19","1","1","89","null","imgNWTK/triangle.png","imgNWTK/square.png","imgNWTK/triangle.png","NaN","NaN","","",""
"1330","","","bandit-task-exp6","28","589608","0.0-6.0-0.4","male","21","Australia","21967","25769","imgNWTK/triangle.png","imgNWTK/square.png","imgNWTK/triangle.png","imgNWTK/square.png","noninfo","optim","3.05","","20","1","1","78","null","imgNWTK/triangle.png","imgNWTK/square.png","imgNWTK/triangle.png","NaN","NaN","","",""
"677","","","bandit-task-exp6","29","613757","0.0-6.0-0.5","male","21","Australia","21967","25769","imgNWTK/triangle.png","imgNWTK/square.png","imgNWTK/triangle.png","imgNWTK/square.png","noninfo","optim","3.05","","21","1","1","80","null","imgNWTK/triangle.png","imgNWTK/square.png","imgNWTK/triangle.png","NaN","NaN","","",""
"1410","","","bandit-task-exp6","30","639834","0.0-6.0-0.6","male","21","Australia","21967","25769","imgNWTK/triangle.png","imgNWTK/square.png","imgNWTK/triangle.png","imgNWTK/square.png","noninfo","optim","3.05","","22","1","2","0","null","imgNWTK/square.png","imgNWTK/triangle.png","imgNWTK/triangle.png","NaN","NaN","","",""
"896","","","bandit-task-exp6","31","666012","0.0-6.0-0.7","male","21","Australia","21967","25769","imgNWTK/triangle.png","imgNWTK/square.png","imgNWTK/triangle.png","imgNWTK/square.png","noninfo","optim","3.05","","23","2","2","130","null","imgNWTK/triangle.png","imgNWTK/square.png","imgNWTK/square.png","NaN","NaN","","",""
"1427","","","bandit-task-exp6","32","699956","0.0-6.0-0.8","male","21","Australia","21967","25769","imgNWTK/triangle.png","imgNWTK/square.png","imgNWTK/triangle.png","imgNWTK/square.png","noninfo","optim","3.05","","24","2","1","0","null","imgNWTK/triangle.png","imgNWTK/square.png","imgNWTK/square.png","NaN","NaN","","",""
"743","","","bandit-task-exp6","33","722982","0.0-6.0-0.9","male","21","Australia","21967","25769","imgNWTK/triangle.png","imgNWTK/square.png","imgNWTK/triangle.png","imgNWTK/square.png","noninfo","optim","3.05","","25","1","2","0","null","imgNWTK/triangle.png","imgNWTK/square.png","imgNWTK/triangle.png","NaN","NaN","","",""
"654","","","bandit-task-exp6","34","745847","0.0-6.0-0.10","male","21","Australia","21967","25769","imgNWTK/triangle.png","imgNWTK/square.png","imgNWTK/triangle.png","imgNWTK/square.png","noninfo","optim","3.05","","26","1","2","0","null","imgNWTK/triangle.png","imgNWTK/square.png","imgNWTK/triangle.png","NaN","NaN","","",""
"1215","","","bandit-task-exp6","35","769996","0.0-6.0-0.11","male","21","Australia","21967","25769","imgNWTK/triangle.png","imgNWTK/square.png","imgNWTK/triangle.png","imgNWTK/square.png","noninfo","optim","3.05","","27","1","1","82","null","imgNWTK/triangle.png","imgNWTK/square.png","imgNWTK/triangle.png","NaN","NaN","","",""
"651","","","bandit-task-exp6","36","792844","0.0-6.0-0.12","male","21","Australia","21967","25769","imgNWTK/triangle.png","imgNWTK/square.png","imgNWTK/triangle.png","imgNWTK/square.png","noninfo","optim","3.05","","28","2","2","128","null","imgNWTK/triangle.png","imgNWTK/square.png","imgNWTK/square.png","NaN","NaN","","",""
"929","","","bandit-task-exp6","37","817711","0.0-6.0-0.13","male","21","Australia","21967","25769","imgNWTK/triangle.png","imgNWTK/square.png","imgNWTK/triangle.png","imgNWTK/square.png","noninfo","optim","3.05","","29","1","2","0","null","imgNWTK/square.png","imgNWTK/triangle.png","imgNWTK/triangle.png","NaN","NaN","","",""
"1050","","","bandit-task-exp6","38","841707","0.0-6.0-0.14","male","21","Australia","21967","25769","imgNWTK/triangle.png","imgNWTK/square.png","imgNWTK/triangle.png","imgNWTK/square.png","noninfo","optim","3.05","","30","1","2","0","null","imgNWTK/triangle.png","imgNWTK/square.png","imgNWTK/triangle.png","NaN","NaN","","",""
"null","<p><b> Congratulations, you have finished this block. </b> </p><p>Please take a short break before moving onto the next block.</p><p>The next block will start after a 15 second break.</p><b>Remember, the point rewards are the same between blocks","","html-keyboard-response","39","856709","0.0-7.0","male","21","Australia","21967","25769","imgNWTK/triangle.png","imgNWTK/square.png","imgNWTK/triangle.png","imgNWTK/square.png","noninfo","optim","3.05","","","","","","","","","","","","null","",""
"2298","","","bandit-task-exp6","40","881148","0.0-8.0-0.0","male","21","Australia","21967","25769","imgNWTK/triangle.png","imgNWTK/square.png","imgNWTK/triangle.png","imgNWTK/square.png","noninfo","optim","3.05","","31","1","2","0","null","imgNWTK/triangle.png","imgNWTK/square.png","imgNWTK/triangle.png","NaN","NaN","","",""
"914","","","bandit-task-exp6","41","904574","0.0-8.0-0.1","male","21","Australia","21967","25769","imgNWTK/triangle.png","imgNWTK/square.png","imgNWTK/triangle.png","imgNWTK/square.png","noninfo","optim","3.05","","32","2","1","0","null","imgNWTK/square.png","imgNWTK/triangle.png","imgNWTK/square.png","NaN","NaN","","",""
"692","","","bandit-task-exp6","42","928183","0.0-8.0-0.2","male","21","Australia","21967","25769","imgNWTK/triangle.png","imgNWTK/square.png","imgNWTK/triangle.png","imgNWTK/square.png","noninfo","optim","3.05","","33","2","2","110","null","imgNWTK/square.png","imgNWTK/triangle.png","imgNWTK/square.png","NaN","NaN","","",""
"1249","","","bandit-task-exp6","43","952218","0.0-8.0-0.3","male","21","Australia","21967","25769","imgNWTK/triangle.png","imgNWTK/square.png","imgNWTK/triangle.png","imgNWTK/square.png","noninfo","optim","3.05","","34","2","1","0","null","imgNWTK/triangle.png","imgNWTK/square.png","imgNWTK/square.png","NaN","NaN","","",""
"1241","","","bandit-task-exp6","44","977074","0.0-8.0-0.4","male","21","Australia","21967","25769","imgNWTK/triangle.png","imgNWTK/square.png","imgNWTK/triangle.png","imgNWTK/square.png","noninfo","optim","3.05","","35","2","2","112","null","imgNWTK/square.png","imgNWTK/triangle.png","imgNWTK/square.png","NaN","NaN","","",""
"1394","","","bandit-task-exp6","45","1000839","0.0-8.0-0.5","male","21","Australia","21967","25769","imgNWTK/triangle.png","imgNWTK/square.png","imgNWTK/triangle.png","imgNWTK/square.png","noninfo","optim","3.05","","36","1","1","72","null","imgNWTK/triangle.png","imgNWTK/square.png","imgNWTK/triangle.png","NaN","NaN","","",""
"1130","","","bandit-task-exp6","46","1025498","0.0-8.0-0.6","male","21","Australia","21967","25769","imgNWTK/triangle.png","imgNWTK/square.png","imgNWTK/triangle.png","imgNWTK/square.png","noninfo","optim","3.05","","37","1","1","79","null","imgNWTK/square.png","imgNWTK/triangle.png","imgNWTK/triangle.png","NaN","NaN","","",""
"1077","","","bandit-task-exp6","47","1049657","0.0-8.0-0.7","male","21","Australia","21967","25769","imgNWTK/triangle.png","imgNWTK/square.png","imgNWTK/triangle.png","imgNWTK/square.png","noninfo","optim","3.05","","38","2","1","0","null","imgNWTK/triangle.png","imgNWTK/square.png","imgNWTK/square.png","NaN","NaN","","",""
"748","","","bandit-task-exp6","48","1073334","0.0-8.0-0.8","male","21","Australia","21967","25769","imgNWTK/triangle.png","imgNWTK/square.png","imgNWTK/triangle.png","imgNWTK/square.png","noninfo","optim","3.05","","39","2","2","125","null","imgNWTK/triangle.png","imgNWTK/square.png","imgNWTK/square.png","NaN","NaN","","",""
"1065","","","bandit-task-exp6","49","1128482","0.0-8.0-0.9","male","21","Australia","21967","25769","imgNWTK/triangle.png","imgNWTK/square.png","imgNWTK/triangle.png","imgNWTK/square.png","noninfo","optim","3.05","","40","1","1","80","null","imgNWTK/square.png","imgNWTK/triangle.png","imgNWTK/triangle.png","NaN","NaN","","",""
"815","","","bandit-task-exp6","50","1152550","0.0-8.0-0.10","male","21","Australia","21967","25769","imgNWTK/triangle.png","imgNWTK/square.png","imgNWTK/triangle.png","imgNWTK/square.png","noninfo","optim","3.05","","41","1","1","72","null","imgNWTK/square.png","imgNWTK/triangle.png","imgNWTK/triangle.png","NaN","NaN","","",""
"762","","","bandit-task-exp6","51","1176028","0.0-8.0-0.11","male","21","Australia","21967","25769","imgNWTK/triangle.png","imgNWTK/square.png","imgNWTK/triangle.png","imgNWTK/square.png","noninfo","optim","3.05","","42","2","1","0","null","imgNWTK/triangle.png","imgNWTK/square.png","imgNWTK/square.png","NaN","NaN","","",""
"719","","","bandit-task-exp6","52","1199504","0.0-8.0-0.12","male","21","Australia","21967","25769","imgNWTK/triangle.png","imgNWTK/square.png","imgNWTK/triangle.png","imgNWTK/square.png","noninfo","optim","3.05","","43","1","2","0","null","imgNWTK/square.png","imgNWTK/triangle.png","imgNWTK/triangle.png","NaN","NaN","","",""
"715","","","bandit-task-exp6","53","1222563","0.0-8.0-0.13","male","21","Australia","21967","25769","imgNWTK/triangle.png","imgNWTK/square.png","imgNWTK/triangle.png","imgNWTK/square.png","noninfo","optim","3.05","","44","2","1","0","null","imgNWTK/triangle.png","imgNWTK/square.png","imgNWTK/square.png","NaN","NaN","","",""
"775","","","bandit-task-exp6","54","1253174","0.0-8.0-0.14","male","21","Australia","21967","25769","imgNWTK/triangle.png","imgNWTK/square.png","imgNWTK/triangle.png","imgNWTK/square.png","noninfo","optim","3.05","","45","2","2","126","null","imgNWTK/triangle.png","imgNWTK/square.png","imgNWTK/square.png","NaN","NaN","","",""
"null","<p><b> Congratulations, you have finished this block. </b> </p><p>Please take a short break before moving onto the next block.</p><p>The next block will start after a 15 second break.</p><b>Remember, the point rewards are the same between blocks","","html-keyboard-response","55","1268180","0.0-9.0","male","21","Australia","21967","25769","imgNWTK/triangle.png","imgNWTK/square.png","imgNWTK/triangle.png","imgNWTK/square.png","noninfo","optim","3.05","","","","","","","","","","","","null","",""
"39928","","","bandit-task-exp6","56","1379630","0.0-10.0-0.0","male","21","Australia","21967","25769","imgNWTK/triangle.png","imgNWTK/square.png","imgNWTK/triangle.png","imgNWTK/square.png","noninfo","optim","3.05","","46","1","2","0","null","imgNWTK/square.png","imgNWTK/triangle.png","imgNWTK/triangle.png","70","70","","",""
"41755","","","bandit-task-exp6","57","1470237","0.0-10.0-0.1","male","21","Australia","21967","25769","imgNWTK/triangle.png","imgNWTK/square.png","imgNWTK/triangle.png","imgNWTK/square.png","noninfo","optim","3.05","","47","2","1","0","null","imgNWTK/square.png","imgNWTK/triangle.png","imgNWTK/square.png","70","0","","",""
"7963","","","bandit-task-exp6","58","1500791","0.0-10.0-0.2","male","21","Australia","21967","25769","imgNWTK/triangle.png","imgNWTK/square.png","imgNWTK/triangle.png","imgNWTK/square.png","noninfo","optim","3.05","","48","2","2","116","null","imgNWTK/triangle.png","imgNWTK/square.png","imgNWTK/square.png","0","120","","",""
"12471","","","bandit-task-exp6","59","1536357","0.0-10.0-0.3","male","21","Australia","21967","25769","imgNWTK/triangle.png","imgNWTK/square.png","imgNWTK/triangle.png","imgNWTK/square.png","noninfo","optim","3.05","","49","1","1","76","null","imgNWTK/triangle.png","imgNWTK/square.png","imgNWTK/triangle.png","130","0","","",""
"8444","","","bandit-task-exp6","60","1569627","0.0-10.0-0.4","male","21","Australia","21967","25769","imgNWTK/triangle.png","imgNWTK/square.png","imgNWTK/triangle.png","imgNWTK/square.png","noninfo","optim","3.05","","50","2","1","0","null","imgNWTK/triangle.png","imgNWTK/square.png","imgNWTK/square.png","0","98","","",""
"13712","","","bandit-task-exp6","61","1608994","0.0-10.0-0.5","male","21","Australia","21967","25769","imgNWTK/triangle.png","imgNWTK/square.png","imgNWTK/triangle.png","imgNWTK/square.png","noninfo","optim","3.05","","51","2","2","123","null","imgNWTK/square.png","imgNWTK/triangle.png","imgNWTK/square.png","80","0","","",""
"8287","","","bandit-task-exp6","62","1640896","0.0-10.0-0.6","male","21","Australia","21967","25769","imgNWTK/triangle.png","imgNWTK/square.png","imgNWTK/triangle.png","imgNWTK/square.png","noninfo","optim","3.05","","52","1","2","0","null","imgNWTK/square.png","imgNWTK/triangle.png","imgNWTK/triangle.png","0","70","","",""
"7378","","","bandit-task-exp6","63","1671984","0.0-10.0-0.7","male","21","Australia","21967","25769","imgNWTK/triangle.png","imgNWTK/square.png","imgNWTK/triangle.png","imgNWTK/square.png","noninfo","optim","3.05","","53","1","2","0","null","imgNWTK/triangle.png","imgNWTK/square.png","imgNWTK/triangle.png","95","0","","",""
"8932","","","bandit-task-exp6","64","1703901","0.0-10.0-0.8","male","21","Australia","21967","25769","imgNWTK/triangle.png","imgNWTK/square.png","imgNWTK/triangle.png","imgNWTK/square.png","noninfo","optim","3.05","","54","2","1","0","null","imgNWTK/square.png","imgNWTK/triangle.png","imgNWTK/square.png","80","0","","",""
"14599","","","bandit-task-exp6","65","1743317","0.0-10.0-0.9","male","21","Australia","21967","25769","imgNWTK/triangle.png","imgNWTK/square.png","imgNWTK/triangle.png","imgNWTK/square.png","noninfo","optim","3.05","","55","1","1","88","null","imgNWTK/square.png","imgNWTK/triangle.png","imgNWTK/triangle.png","120","120","","",""
"11144","","","bandit-task-exp6","66","1778886","0.0-10.0-0.10","male","21","Australia","21967","25769","imgNWTK/triangle.png","imgNWTK/square.png","imgNWTK/triangle.png","imgNWTK/square.png","noninfo","optim","3.05","","56","1","1","83","null","imgNWTK/square.png","imgNWTK/triangle.png","imgNWTK/triangle.png","80","80","","",""
"8743","","","bandit-task-exp6","67","1812067","0.0-10.0-0.11","male","21","Australia","21967","25769","imgNWTK/triangle.png","imgNWTK/square.png","imgNWTK/triangle.png","imgNWTK/square.png","noninfo","optim","3.05","","57","2","1","0","null","imgNWTK/square.png","imgNWTK/triangle.png","imgNWTK/square.png","120","80","","",""
"218252","","","bandit-task-exp6","68","2058530","0.0-10.0-0.12","male","21","Australia","21967","25769","imgNWTK/triangle.png","imgNWTK/square.png","imgNWTK/triangle.png","imgNWTK/square.png","noninfo","optim","3.05","","58","1","1","77","null","imgNWTK/triangle.png","imgNWTK/square.png","imgNWTK/triangle.png","120","0","","",""
"4524","","","bandit-task-exp6","69","2085921","0.0-10.0-0.13","male","21","Australia","21967","25769","imgNWTK/triangle.png","imgNWTK/square.png","imgNWTK/triangle.png","imgNWTK/square.png","noninfo","optim","3.05","","59","1","1","89","null","imgNWTK/square.png","imgNWTK/triangle.png","imgNWTK/triangle.png","80","80","","",""
"7787","","","bandit-task-exp6","70","2122211","0.0-10.0-0.14","male","21","Australia","21967","25769","imgNWTK/triangle.png","imgNWTK/square.png","imgNWTK/triangle.png","imgNWTK/square.png","noninfo","optim","3.05","","60","1","1","76","null","imgNWTK/square.png","imgNWTK/triangle.png","imgNWTK/triangle.png","70","70","","",""
"5565","<p> Congratulations, you have finished the main part of the experiment. </p><p>Before you finish, we have a few short questions about the options and outcomes you saw in the task.</p>","0","html-button-response","71","2127780","0.0-11.0","male","21","Australia","21967","25769","imgNWTK/triangle.png","imgNWTK/square.png","imgNWTK/triangle.png","imgNWTK/square.png","noninfo","optim","3.05","","","","","","","","","","","","","",""
"8842","<p><b>Now, imagine that you clicked on the below button for another 10 trials (this includes <i> BOTH WIN and NO-WIN trials</i>).</p> <img src= 'imgNWTK/square.png'></img></br></br> <p><b>Please type the reward (number of points) you would expect to receive on every trial.</br> Click start to begin.</p>","0","html-button-response","72","2136624","0.0-12.0","male","21","Australia","21967","25769","imgNWTK/triangle.png","imgNWTK/square.png","imgNWTK/triangle.png","imgNWTK/square.png","noninfo","optim","3.05","","","","","","","","","","","","","",""
"8414.199999988079","","","survey-number","73","2145046","0.0-13.0-0.0","male","21","Australia","21967","25769","imgNWTK/triangle.png","imgNWTK/square.png","imgNWTK/triangle.png","imgNWTK/square.png","noninfo","optim","3.05","{""undefined"":""70""}","","","","","","","","","","","","imgNWTK/square.png",""
"3249.699999988079","","","survey-number","74","2148301","0.0-13.0-0.1","male","21","Australia","21967","25769","imgNWTK/triangle.png","imgNWTK/square.png","imgNWTK/triangle.png","imgNWTK/square.png","noninfo","optim","3.05","{""undefined"":""0""}","","","","","","","","","","","","imgNWTK/square.png",""
"3465.899999976158","","","survey-number","75","2151772","0.0-13.0-0.2","male","21","Australia","21967","25769","imgNWTK/triangle.png","imgNWTK/square.png","imgNWTK/triangle.png","imgNWTK/square.png","noninfo","optim","3.05","{""undefined"":""120""}","","","","","","","","","","","","imgNWTK/square.png",""
"2999.800000011921","","","survey-number","76","2154777","0.0-13.0-0.3","male","21","Australia","21967","25769","imgNWTK/triangle.png","imgNWTK/square.png","imgNWTK/triangle.png","imgNWTK/square.png","noninfo","optim","3.05","{""undefined"":""80""}","","","","","","","","","","","","imgNWTK/square.png",""
"2868.900000035763","","","survey-number","77","2157651","0.0-13.0-0.4","male","21","Australia","21967","25769","imgNWTK/triangle.png","imgNWTK/square.png","imgNWTK/triangle.png","imgNWTK/square.png","noninfo","optim","3.05","{""undefined"":""0""}","","","","","","","","","","","","imgNWTK/square.png",""
"4440.700000047684","","","survey-number","78","2162096","0.0-13.0-0.5","male","21","Australia","21967","25769","imgNWTK/triangle.png","imgNWTK/square.png","imgNWTK/triangle.png","imgNWTK/square.png","noninfo","optim","3.05","{""undefined"":""76""}","","","","","","","","","","","","imgNWTK/square.png",""
"3944.5","","","survey-number","79","2166043","0.0-13.0-0.6","male","21","Australia","21967","25769","imgNWTK/triangle.png","imgNWTK/square.png","imgNWTK/triangle.png","imgNWTK/square.png","noninfo","optim","3.05","{""undefined"":""0""}","","","","","","","","","","","","imgNWTK/square.png",""
"6669.300000011921","","","survey-number","80","2172718","0.0-13.0-0.7","male","21","Australia","21967","25769","imgNWTK/triangle.png","imgNWTK/square.png","imgNWTK/triangle.png","imgNWTK/square.png","noninfo","optim","3.05","{""undefined"":""90""}","","","","","","","","","","","","imgNWTK/square.png",""
"8843.899999976158","","","survey-number","81","2181567","0.0-13.0-0.8","male","21","Australia","21967","25769","imgNWTK/triangle.png","imgNWTK/square.png","imgNWTK/triangle.png","imgNWTK/square.png","noninfo","optim","3.05","{""undefined"":""70""}","","","","","","","","","","","","imgNWTK/square.png",""
"1694.699999988079","","","survey-number","82","2183267","0.0-13.0-0.9","male","21","Australia","21967","25769","imgNWTK/triangle.png","imgNWTK/square.png","imgNWTK/triangle.png","imgNWTK/square.png","noninfo","optim","3.05","{""undefined"":""0""}","","","","","","","","","","","","imgNWTK/square.png",""
"2475","<p><b>Imagine that you clicked on the below button for another 10 trials (this includes <i> both WIN and NO-WIN trials</i>).</p> <img src= 'imgNWTK/triangle.png'></img></br></br> <p><b>Please type the reward (number of points) you would expect to receive on every trial.</br> Click start to begin.</p>","0","html-button-response","83","2185745","0.0-14.0","male","21","Australia","21967","25769","imgNWTK/triangle.png","imgNWTK/square.png","imgNWTK/triangle.png","imgNWTK/square.png","noninfo","optim","3.05","","","","","","","","","","","","","",""
"1561.1000000238419","","","survey-number","84","2187312","0.0-15.0-0.0","male","21","Australia","21967","25769","imgNWTK/triangle.png","imgNWTK/square.png","imgNWTK/triangle.png","imgNWTK/square.png","noninfo","optim","3.05","{""undefined"":""0""}","","","","","","","","","","","","imgNWTK/triangle.png",""
"6480.300000011921","","","survey-number","85","2193796","0.0-15.0-0.1","male","21","Australia","21967","25769","imgNWTK/triangle.png","imgNWTK/square.png","imgNWTK/triangle.png","imgNWTK/square.png","noninfo","optim","3.05","{""undefined"":""80""}","","","","","","","","","","","","imgNWTK/triangle.png",""
"2979.900000035763","","","survey-number","86","2196782","0.0-15.0-0.2","male","21","Australia","21967","25769","imgNWTK/triangle.png","imgNWTK/square.png","imgNWTK/triangle.png","imgNWTK/square.png","noninfo","optim","3.05","{""undefined"":""0""}","","","","","","","","","","","","imgNWTK/triangle.png",""
"3143.900000035763","","","survey-number","87","2199932","0.0-15.0-0.3","male","21","Australia","21967","25769","imgNWTK/triangle.png","imgNWTK/square.png","imgNWTK/triangle.png","imgNWTK/square.png","noninfo","optim","3.05","{""undefined"":""70""}","","","","","","","","","","","","imgNWTK/triangle.png",""
"3160.399999976158","","","survey-number","88","2203098","0.0-15.0-0.4","male","21","Australia","21967","25769","imgNWTK/triangle.png","imgNWTK/square.png","imgNWTK/triangle.png","imgNWTK/square.png","noninfo","optim","3.05","{""undefined"":""120""}","","","","","","","","","","","","imgNWTK/triangle.png",""
"2670.399999976158","","","survey-number","89","2205773","0.0-15.0-0.5","male","21","Australia","21967","25769","imgNWTK/triangle.png","imgNWTK/square.png","imgNWTK/triangle.png","imgNWTK/square.png","noninfo","optim","3.05","{""undefined"":""0""}","","","","","","","","","","","","imgNWTK/triangle.png",""
"4632.100000023842","","","survey-number","90","2210410","0.0-15.0-0.6","male","21","Australia","21967","25769","imgNWTK/triangle.png","imgNWTK/square.png","imgNWTK/triangle.png","imgNWTK/square.png","noninfo","optim","3.05","{""undefined"":""80""}","","","","","","","","","","","","imgNWTK/triangle.png",""
"2592.100000023842","","","survey-number","91","2213007","0.0-15.0-0.7","male","21","Australia","21967","25769","imgNWTK/triangle.png","imgNWTK/square.png","imgNWTK/triangle.png","imgNWTK/square.png","noninfo","optim","3.05","{""undefined"":""70""}","","","","","","","","","","","","imgNWTK/triangle.png",""
"1735.4000000357628","","","survey-number","92","2214748","0.0-15.0-0.8","male","21","Australia","21967","25769","imgNWTK/triangle.png","imgNWTK/square.png","imgNWTK/triangle.png","imgNWTK/square.png","noninfo","optim","3.05","{""undefined"":""0""}","","","","","","","","","","","","imgNWTK/triangle.png",""
"1580.800000011921","","","survey-number","93","2216333","0.0-15.0-0.9","male","21","Australia","21967","25769","imgNWTK/triangle.png","imgNWTK/square.png","imgNWTK/triangle.png","imgNWTK/square.png","noninfo","optim","3.05","{""undefined"":""0""}","","","","","","","","","","","","imgNWTK/triangle.png",""
"41681.80000001192","","","survey-number","94","2258024","0.0-16.0","male","21","Australia","21967","25769","imgNWTK/triangle.png","imgNWTK/square.png","imgNWTK/triangle.png","imgNWTK/square.png","noninfo","optim","3.05","{""undefined"":""76""}","","","","","","","","","","","","","imgNWTK/square.png"
"3157.5","","","survey-number","95","2261186","0.0-17.0","male","21","Australia","21967","25769","imgNWTK/triangle.png","imgNWTK/square.png","imgNWTK/triangle.png","imgNWTK/square.png","noninfo","optim","3.05","{""undefined"":""76""}","","","","","","","","","","","","","imgNWTK/triangle.png"
"28780","<p style=""text-align:left;"">Great! We are almost at the end of the study... (Please do not close the browser window yet.)</p><p> Your final points balance is 3050, which equals to a bonus payment of $3.05. The payment can be collected from MAT721; please email amy.x.li@unsw.edu.au at least 24 hours prior to collection so that this is ready for you.</p><p style=""text-align:left;"">To view the debriefing form, please click <a href=""./imgNWTK/debrief_3205.pdf"" target=""_blank"">here</a> to download a copy.</p><p style=""text-align:left;"">Then, <b>please click the below button</b> to confirm that you have received your debrief and to complete the study. Upon clicking ""Finish!"", your SONA credit will be automatically assigned.</p>","0","html-button-response","96","2289968","0.0-18.0","male","21","Australia","21967","25769","imgNWTK/triangle.png","imgNWTK/square.png","imgNWTK/triangle.png","imgNWTK/square.png","noninfo","optim","3.05","","","","","","","","","","","","","",""
