"rt","stimulus","button_pressed","trial_type","trial_index","time_elapsed","internal_node_id","gender","age","language","PID","sona_id","subStim","optStim","stim1","stim2","infoCond","optimCond","bonus","responses","banditTrial","choice","cue","feedback","estimateData","leftOption","rightOption","choiceName","leftInput","rightInput","key_press","postQ","singleEst"
"15538","<p>Thank you for signing up to participate in SONA Study 465! <br> During this study, please focus on the experiment and refrain from activities such as:</p>- <b>Switching to other tabs on your browser (this will be monitored via the experiment)</br> - Using your mobile phone/cell phone</br> - Communicating with others</br></br></b><p>This way, you are helping to provide data that is useful for psychological research. We thank you for your cooperation!</p>","0","html-button-response","0","15542","0.0-0.0","male","18","Chinese","78859","26056","imgNWTK/square.png","imgNWTK/triangle.png","imgNWTK/square.png","imgNWTK/triangle.png","noninfo","optim","2.92","","","","","","","","","","","","","",""
"1350","<p>Welcome to the experiment!</p><p>You will now read some instructions about the task. Press the 'Next' button to continue. </p>","0","html-button-response","1","16893","0.0-1.0","male","18","Chinese","78859","26056","imgNWTK/square.png","imgNWTK/triangle.png","imgNWTK/square.png","imgNWTK/triangle.png","noninfo","optim","2.92","","","","","","","","","","","","","",""
"14311","<p> On each trial throughout the experiment you will choose between two options, </br>a <b>Black Square </b> and <b> Black Triangle </b>, as seen below.</p><div><div style= 'float: left; width: 300px; margin: 10px 10px;'><img src= 'imgNWTK/square.png'></img></div><div style= 'float: right; width: 300px; margin: 10px 10px;'><img src= 'imgNWTK/triangle.png'></img></div></div><br/><br/><br/><br/><br/><br/><br/><br/><br/><br/><br/><p>Each option results in winning points or receiving 0 points.</br>There is a 50% chance of either winning or receiving 0 points.</p><p>You won't receive the outcome until after a <b> 20 second delay</b>.</p>","0","html-button-response","2","31207","0.0-2.0-0.0","male","18","Chinese","78859","26056","imgNWTK/square.png","imgNWTK/triangle.png","imgNWTK/square.png","imgNWTK/triangle.png","noninfo","optim","2.92","","","","","","","","","","","","","",""
"16808","<img src= 'imgNWTK/NonInfoDiagram.png'></img><p>As seen above, whether you choose the square or triangle, you will receive a coloured circle after the choice. </p> <p>This circle will be on screen for 20 seconds until you win points or receive 0 points.</p><p>The coloured circle depends on which option you chose. </br> In the above example, choosing a triangle leads to a green circle and choosing the square leads to a red circle.</p>Please note: the circles in your task will be different to the above colours.</br></br>","0","html-button-response","3","48030","0.0-2.0-1.0","male","18","Chinese","78859","26056","imgNWTK/square.png","imgNWTK/triangle.png","imgNWTK/square.png","imgNWTK/triangle.png","noninfo","optim","2.92","","","","","","","","","","","","","",""
"16329","<img src= 'cues/winTrials_noInfo.png' width = '1200'></img><p>To reiterate, 50% of the outcomes of each option will be WIN TRIALS, and the other 50% will be NO-WIN TRIALS.","0","html-button-response","4","64392","0.0-2.0-2.0","male","18","Chinese","78859","26056","imgNWTK/square.png","imgNWTK/triangle.png","imgNWTK/square.png","imgNWTK/triangle.png","noninfo","optim","2.92","","","","","","","","","","","","","",""
"10545","<p> There will be <b>four blocks</b> in the experiment.</br>You will be given a short 15 second break between each block.</p><p><b>The points and the options will remain the same between the blocks.</b></p>The blocks are there just to give you a small break.</br></br></br></br><p>The points you earn in the task are also equal to <b> actual money</b>.</br> <b>1000 points is equal to $1 AUD</b></p><p>This is the rate you will be paid at the experiment's end.","0","html-button-response","5","74941","0.0-2.0-3.0","male","18","Chinese","78859","26056","imgNWTK/square.png","imgNWTK/triangle.png","imgNWTK/square.png","imgNWTK/triangle.png","noninfo","optim","2.92","","","","","","","","","","","","","",""
"10667","","","survey-multi-choice","6","85644","0.0-2.0-4.0","male","18","Chinese","78859","26056","imgNWTK/square.png","imgNWTK/triangle.png","imgNWTK/square.png","imgNWTK/triangle.png","noninfo","optim","2.92","{""Q0"":""20 Seconds"",""Q1"":""True"",""Q2"":""Equally""}","","","","","","","","","","","","",""
"2103","<p> Well done, all your answers were correct! <br> The experiment is about to start now. <br/> Click start to continue, or email your researcher <b>(amy.x.li@unsw.edu.au)</b> if you have any questions before starting.","0","html-button-response","7","87757","0.0-3.0","male","18","Chinese","78859","26056","imgNWTK/square.png","imgNWTK/triangle.png","imgNWTK/square.png","imgNWTK/triangle.png","noninfo","optim","2.92","","","","","","","","","","","","","",""
"2232","","","bandit-task-exp6","8","113922","0.0-4.0-0.0","male","18","Chinese","78859","26056","imgNWTK/square.png","imgNWTK/triangle.png","imgNWTK/square.png","imgNWTK/triangle.png","noninfo","optim","2.92","","1","1","1","75","null","imgNWTK/triangle.png","imgNWTK/square.png","imgNWTK/square.png","NaN","NaN","","",""
"1006","","","bandit-task-exp6","9","136995","0.0-4.0-0.1","male","18","Chinese","78859","26056","imgNWTK/square.png","imgNWTK/triangle.png","imgNWTK/square.png","imgNWTK/triangle.png","noninfo","optim","2.92","","2","1","2","0","null","imgNWTK/square.png","imgNWTK/triangle.png","imgNWTK/square.png","NaN","NaN","","",""
"1103","","","bandit-task-exp6","10","160455","0.0-4.0-0.2","male","18","Chinese","78859","26056","imgNWTK/square.png","imgNWTK/triangle.png","imgNWTK/square.png","imgNWTK/triangle.png","noninfo","optim","2.92","","3","1","1","89","null","imgNWTK/square.png","imgNWTK/triangle.png","imgNWTK/square.png","NaN","NaN","","",""
"1396","","","bandit-task-exp6","11","183717","0.0-4.0-0.3","male","18","Chinese","78859","26056","imgNWTK/square.png","imgNWTK/triangle.png","imgNWTK/square.png","imgNWTK/triangle.png","noninfo","optim","2.92","","4","1","2","0","null","imgNWTK/square.png","imgNWTK/triangle.png","imgNWTK/square.png","NaN","NaN","","",""
"2156","","","bandit-task-exp6","12","208493","0.0-4.0-0.4","male","18","Chinese","78859","26056","imgNWTK/square.png","imgNWTK/triangle.png","imgNWTK/square.png","imgNWTK/triangle.png","noninfo","optim","2.92","","5","2","2","112","null","imgNWTK/triangle.png","imgNWTK/square.png","imgNWTK/triangle.png","NaN","NaN","","",""
"677","","","bandit-task-exp6","13","231446","0.0-4.0-0.5","male","18","Chinese","78859","26056","imgNWTK/square.png","imgNWTK/triangle.png","imgNWTK/square.png","imgNWTK/triangle.png","noninfo","optim","2.92","","6","1","1","86","null","imgNWTK/square.png","imgNWTK/triangle.png","imgNWTK/square.png","NaN","NaN","","",""
"540","","","bandit-task-exp6","14","254264","0.0-4.0-0.6","male","18","Chinese","78859","26056","imgNWTK/square.png","imgNWTK/triangle.png","imgNWTK/square.png","imgNWTK/triangle.png","noninfo","optim","2.92","","7","1","2","0","null","imgNWTK/square.png","imgNWTK/triangle.png","imgNWTK/square.png","NaN","NaN","","",""
"556","","","bandit-task-exp6","15","280631","0.0-4.0-0.7","male","18","Chinese","78859","26056","imgNWTK/square.png","imgNWTK/triangle.png","imgNWTK/square.png","imgNWTK/triangle.png","noninfo","optim","2.92","","8","1","1","87","null","imgNWTK/square.png","imgNWTK/triangle.png","imgNWTK/square.png","NaN","NaN","","",""
"626","","","bandit-task-exp6","16","304071","0.0-4.0-0.8","male","18","Chinese","78859","26056","imgNWTK/square.png","imgNWTK/triangle.png","imgNWTK/square.png","imgNWTK/triangle.png","noninfo","optim","2.92","","9","1","2","0","null","imgNWTK/square.png","imgNWTK/triangle.png","imgNWTK/square.png","NaN","NaN","","",""
"537","","","bandit-task-exp6","17","326517","0.0-4.0-0.9","male","18","Chinese","78859","26056","imgNWTK/square.png","imgNWTK/triangle.png","imgNWTK/square.png","imgNWTK/triangle.png","noninfo","optim","2.92","","10","2","1","0","null","imgNWTK/triangle.png","imgNWTK/square.png","imgNWTK/triangle.png","NaN","NaN","","",""
"557","","","bandit-task-exp6","18","349278","0.0-4.0-0.10","male","18","Chinese","78859","26056","imgNWTK/square.png","imgNWTK/triangle.png","imgNWTK/square.png","imgNWTK/triangle.png","noninfo","optim","2.92","","11","2","2","125","null","imgNWTK/triangle.png","imgNWTK/square.png","imgNWTK/triangle.png","NaN","NaN","","",""
"929","","","bandit-task-exp6","19","373109","0.0-4.0-0.11","male","18","Chinese","78859","26056","imgNWTK/square.png","imgNWTK/triangle.png","imgNWTK/square.png","imgNWTK/triangle.png","noninfo","optim","2.92","","12","2","1","0","null","imgNWTK/triangle.png","imgNWTK/square.png","imgNWTK/triangle.png","NaN","NaN","","",""
"867","","","bandit-task-exp6","20","396398","0.0-4.0-0.12","male","18","Chinese","78859","26056","imgNWTK/square.png","imgNWTK/triangle.png","imgNWTK/square.png","imgNWTK/triangle.png","noninfo","optim","2.92","","13","1","2","0","null","imgNWTK/square.png","imgNWTK/triangle.png","imgNWTK/square.png","NaN","NaN","","",""
"700","","","bandit-task-exp6","21","419061","0.0-4.0-0.13","male","18","Chinese","78859","26056","imgNWTK/square.png","imgNWTK/triangle.png","imgNWTK/square.png","imgNWTK/triangle.png","noninfo","optim","2.92","","14","1","2","0","null","imgNWTK/square.png","imgNWTK/triangle.png","imgNWTK/square.png","NaN","NaN","","",""
"660","","","bandit-task-exp6","22","442141","0.0-4.0-0.14","male","18","Chinese","78859","26056","imgNWTK/square.png","imgNWTK/triangle.png","imgNWTK/square.png","imgNWTK/triangle.png","noninfo","optim","2.92","","15","2","2","124","null","imgNWTK/triangle.png","imgNWTK/square.png","imgNWTK/triangle.png","NaN","NaN","","",""
"null","<p><b> Congratulations, you have finished this block. </b> </p><p>Please take a short break before moving onto the next block.</p><p>The next block will start after a 15 second break.</p><b>Remember, the point rewards are the same between blocks","","html-keyboard-response","23","457151","0.0-5.0","male","18","Chinese","78859","26056","imgNWTK/square.png","imgNWTK/triangle.png","imgNWTK/square.png","imgNWTK/triangle.png","noninfo","optim","2.92","","","","","","","","","","","","null","",""
"1982","","","bandit-task-exp6","24","481255","0.0-6.0-0.0","male","18","Chinese","78859","26056","imgNWTK/square.png","imgNWTK/triangle.png","imgNWTK/square.png","imgNWTK/triangle.png","noninfo","optim","2.92","","16","1","1","84","null","imgNWTK/square.png","imgNWTK/triangle.png","imgNWTK/square.png","NaN","NaN","","",""
"741","","","bandit-task-exp6","25","504147","0.0-6.0-0.1","male","18","Chinese","78859","26056","imgNWTK/square.png","imgNWTK/triangle.png","imgNWTK/square.png","imgNWTK/triangle.png","noninfo","optim","2.92","","17","1","1","88","null","imgNWTK/square.png","imgNWTK/triangle.png","imgNWTK/square.png","NaN","NaN","","",""
"794","","","bandit-task-exp6","26","526936","0.0-6.0-0.2","male","18","Chinese","78859","26056","imgNWTK/square.png","imgNWTK/triangle.png","imgNWTK/square.png","imgNWTK/triangle.png","noninfo","optim","2.92","","18","2","1","0","null","imgNWTK/triangle.png","imgNWTK/square.png","imgNWTK/triangle.png","NaN","NaN","","",""
"532","","","bandit-task-exp6","27","549444","0.0-6.0-0.3","male","18","Chinese","78859","26056","imgNWTK/square.png","imgNWTK/triangle.png","imgNWTK/square.png","imgNWTK/triangle.png","noninfo","optim","2.92","","19","2","2","122","null","imgNWTK/triangle.png","imgNWTK/square.png","imgNWTK/triangle.png","NaN","NaN","","",""
"734","","","bandit-task-exp6","28","572437","0.0-6.0-0.4","male","18","Chinese","78859","26056","imgNWTK/square.png","imgNWTK/triangle.png","imgNWTK/square.png","imgNWTK/triangle.png","noninfo","optim","2.92","","20","2","1","0","null","imgNWTK/triangle.png","imgNWTK/square.png","imgNWTK/triangle.png","NaN","NaN","","",""
"564","","","bandit-task-exp6","29","595493","0.0-6.0-0.5","male","18","Chinese","78859","26056","imgNWTK/square.png","imgNWTK/triangle.png","imgNWTK/square.png","imgNWTK/triangle.png","noninfo","optim","2.92","","21","2","2","110","null","imgNWTK/triangle.png","imgNWTK/square.png","imgNWTK/triangle.png","NaN","NaN","","",""
"892","","","bandit-task-exp6","30","618741","0.0-6.0-0.6","male","18","Chinese","78859","26056","imgNWTK/square.png","imgNWTK/triangle.png","imgNWTK/square.png","imgNWTK/triangle.png","noninfo","optim","2.92","","22","2","1","0","null","imgNWTK/triangle.png","imgNWTK/square.png","imgNWTK/triangle.png","NaN","NaN","","",""
"603","","","bandit-task-exp6","31","641782","0.0-6.0-0.7","male","18","Chinese","78859","26056","imgNWTK/square.png","imgNWTK/triangle.png","imgNWTK/square.png","imgNWTK/triangle.png","noninfo","optim","2.92","","23","1","2","0","null","imgNWTK/square.png","imgNWTK/triangle.png","imgNWTK/square.png","NaN","NaN","","",""
"615","","","bandit-task-exp6","32","664793","0.0-6.0-0.8","male","18","Chinese","78859","26056","imgNWTK/square.png","imgNWTK/triangle.png","imgNWTK/square.png","imgNWTK/triangle.png","noninfo","optim","2.92","","24","2","1","0","null","imgNWTK/triangle.png","imgNWTK/square.png","imgNWTK/triangle.png","NaN","NaN","","",""
"539","","","bandit-task-exp6","33","687061","0.0-6.0-0.9","male","18","Chinese","78859","26056","imgNWTK/square.png","imgNWTK/triangle.png","imgNWTK/square.png","imgNWTK/triangle.png","noninfo","optim","2.92","","25","1","2","0","null","imgNWTK/square.png","imgNWTK/triangle.png","imgNWTK/square.png","NaN","NaN","","",""
"629","","","bandit-task-exp6","34","709396","0.0-6.0-0.10","male","18","Chinese","78859","26056","imgNWTK/square.png","imgNWTK/triangle.png","imgNWTK/square.png","imgNWTK/triangle.png","noninfo","optim","2.92","","26","2","1","0","null","imgNWTK/triangle.png","imgNWTK/square.png","imgNWTK/triangle.png","NaN","NaN","","",""
"964","","","bandit-task-exp6","35","731958","0.0-6.0-0.11","male","18","Chinese","78859","26056","imgNWTK/square.png","imgNWTK/triangle.png","imgNWTK/square.png","imgNWTK/triangle.png","noninfo","optim","2.92","","27","2","2","119","null","imgNWTK/triangle.png","imgNWTK/square.png","imgNWTK/triangle.png","NaN","NaN","","",""
"650","","","bandit-task-exp6","36","754372","0.0-6.0-0.12","male","18","Chinese","78859","26056","imgNWTK/square.png","imgNWTK/triangle.png","imgNWTK/square.png","imgNWTK/triangle.png","noninfo","optim","2.92","","28","1","1","75","null","imgNWTK/square.png","imgNWTK/triangle.png","imgNWTK/square.png","NaN","NaN","","",""
"613","","","bandit-task-exp6","37","777501","0.0-6.0-0.13","male","18","Chinese","78859","26056","imgNWTK/square.png","imgNWTK/triangle.png","imgNWTK/square.png","imgNWTK/triangle.png","noninfo","optim","2.92","","29","2","1","0","null","imgNWTK/triangle.png","imgNWTK/square.png","imgNWTK/triangle.png","NaN","NaN","","",""
"693","","","bandit-task-exp6","38","802694","0.0-6.0-0.14","male","18","Chinese","78859","26056","imgNWTK/square.png","imgNWTK/triangle.png","imgNWTK/square.png","imgNWTK/triangle.png","noninfo","optim","2.92","","30","1","1","80","null","imgNWTK/square.png","imgNWTK/triangle.png","imgNWTK/square.png","NaN","NaN","","",""
"null","<p><b> Congratulations, you have finished this block. </b> </p><p>Please take a short break before moving onto the next block.</p><p>The next block will start after a 15 second break.</p><b>Remember, the point rewards are the same between blocks","","html-keyboard-response","39","817701","0.0-7.0","male","18","Chinese","78859","26056","imgNWTK/square.png","imgNWTK/triangle.png","imgNWTK/square.png","imgNWTK/triangle.png","noninfo","optim","2.92","","","","","","","","","","","","null","",""
"1293","","","bandit-task-exp6","40","840630","0.0-8.0-0.0","male","18","Chinese","78859","26056","imgNWTK/square.png","imgNWTK/triangle.png","imgNWTK/square.png","imgNWTK/triangle.png","noninfo","optim","2.92","","31","2","2","123","null","imgNWTK/triangle.png","imgNWTK/square.png","imgNWTK/triangle.png","NaN","NaN","","",""
"558","","","bandit-task-exp6","41","862803","0.0-8.0-0.1","male","18","Chinese","78859","26056","imgNWTK/square.png","imgNWTK/triangle.png","imgNWTK/square.png","imgNWTK/triangle.png","noninfo","optim","2.92","","32","2","2","120","null","imgNWTK/triangle.png","imgNWTK/square.png","imgNWTK/triangle.png","NaN","NaN","","",""
"558","","","bandit-task-exp6","42","885069","0.0-8.0-0.2","male","18","Chinese","78859","26056","imgNWTK/square.png","imgNWTK/triangle.png","imgNWTK/square.png","imgNWTK/triangle.png","noninfo","optim","2.92","","33","2","2","122","null","imgNWTK/triangle.png","imgNWTK/square.png","imgNWTK/triangle.png","NaN","NaN","","",""
"940","","","bandit-task-exp6","43","908024","0.0-8.0-0.3","male","18","Chinese","78859","26056","imgNWTK/square.png","imgNWTK/triangle.png","imgNWTK/square.png","imgNWTK/triangle.png","noninfo","optim","2.92","","34","2","1","0","null","imgNWTK/triangle.png","imgNWTK/square.png","imgNWTK/triangle.png","NaN","NaN","","",""
"586","","","bandit-task-exp6","44","930767","0.0-8.0-0.4","male","18","Chinese","78859","26056","imgNWTK/square.png","imgNWTK/triangle.png","imgNWTK/square.png","imgNWTK/triangle.png","noninfo","optim","2.92","","35","1","1","87","null","imgNWTK/square.png","imgNWTK/triangle.png","imgNWTK/square.png","NaN","NaN","","",""
"635","","","bandit-task-exp6","45","962209","0.0-8.0-0.5","male","18","Chinese","78859","26056","imgNWTK/square.png","imgNWTK/triangle.png","imgNWTK/square.png","imgNWTK/triangle.png","noninfo","optim","2.92","","36","1","2","0","null","imgNWTK/square.png","imgNWTK/triangle.png","imgNWTK/square.png","NaN","NaN","","",""
"690","","","bandit-task-exp6","46","984646","0.0-8.0-0.6","male","18","Chinese","78859","26056","imgNWTK/square.png","imgNWTK/triangle.png","imgNWTK/square.png","imgNWTK/triangle.png","noninfo","optim","2.92","","37","1","1","78","null","imgNWTK/square.png","imgNWTK/triangle.png","imgNWTK/square.png","NaN","NaN","","",""
"801","","","bandit-task-exp6","47","1010068","0.0-8.0-0.7","male","18","Chinese","78859","26056","imgNWTK/square.png","imgNWTK/triangle.png","imgNWTK/square.png","imgNWTK/triangle.png","noninfo","optim","2.92","","38","2","1","0","null","imgNWTK/triangle.png","imgNWTK/square.png","imgNWTK/triangle.png","NaN","NaN","","",""
"4357","","","bandit-task-exp6","48","1035991","0.0-8.0-0.8","male","18","Chinese","78859","26056","imgNWTK/square.png","imgNWTK/triangle.png","imgNWTK/square.png","imgNWTK/triangle.png","noninfo","optim","2.92","","39","2","2","130","null","imgNWTK/triangle.png","imgNWTK/square.png","imgNWTK/triangle.png","NaN","NaN","","",""
"843","","","bandit-task-exp6","49","1061925","0.0-8.0-0.9","male","18","Chinese","78859","26056","imgNWTK/square.png","imgNWTK/triangle.png","imgNWTK/square.png","imgNWTK/triangle.png","noninfo","optim","2.92","","40","2","2","124","null","imgNWTK/triangle.png","imgNWTK/square.png","imgNWTK/triangle.png","NaN","NaN","","",""
"893","","","bandit-task-exp6","50","1085413","0.0-8.0-0.10","male","18","Chinese","78859","26056","imgNWTK/square.png","imgNWTK/triangle.png","imgNWTK/square.png","imgNWTK/triangle.png","noninfo","optim","2.92","","41","2","2","126","null","imgNWTK/triangle.png","imgNWTK/square.png","imgNWTK/triangle.png","NaN","NaN","","",""
"757","","","bandit-task-exp6","51","1109124","0.0-8.0-0.11","male","18","Chinese","78859","26056","imgNWTK/square.png","imgNWTK/triangle.png","imgNWTK/square.png","imgNWTK/triangle.png","noninfo","optim","2.92","","42","1","2","0","null","imgNWTK/square.png","imgNWTK/triangle.png","imgNWTK/square.png","NaN","NaN","","",""
"542","","","bandit-task-exp6","52","1131712","0.0-8.0-0.12","male","18","Chinese","78859","26056","imgNWTK/square.png","imgNWTK/triangle.png","imgNWTK/square.png","imgNWTK/triangle.png","noninfo","optim","2.92","","43","1","1","70","null","imgNWTK/square.png","imgNWTK/triangle.png","imgNWTK/square.png","NaN","NaN","","",""
"642","","","bandit-task-exp6","53","1154704","0.0-8.0-0.13","male","18","Chinese","78859","26056","imgNWTK/square.png","imgNWTK/triangle.png","imgNWTK/square.png","imgNWTK/triangle.png","noninfo","optim","2.92","","44","2","1","0","null","imgNWTK/triangle.png","imgNWTK/square.png","imgNWTK/triangle.png","NaN","NaN","","",""
"649","","","bandit-task-exp6","54","1179285","0.0-8.0-0.14","male","18","Chinese","78859","26056","imgNWTK/square.png","imgNWTK/triangle.png","imgNWTK/square.png","imgNWTK/triangle.png","noninfo","optim","2.92","","45","1","2","0","null","imgNWTK/square.png","imgNWTK/triangle.png","imgNWTK/square.png","NaN","NaN","","",""
"null","<p><b> Congratulations, you have finished this block. </b> </p><p>Please take a short break before moving onto the next block.</p><p>The next block will start after a 15 second break.</p><b>Remember, the point rewards are the same between blocks","","html-keyboard-response","55","1194299","0.0-9.0","male","18","Chinese","78859","26056","imgNWTK/square.png","imgNWTK/triangle.png","imgNWTK/square.png","imgNWTK/triangle.png","noninfo","optim","2.92","","","","","","","","","","","","null","",""
"16196","","","bandit-task-exp6","56","1233654","0.0-10.0-0.0","male","18","Chinese","78859","26056","imgNWTK/square.png","imgNWTK/triangle.png","imgNWTK/square.png","imgNWTK/triangle.png","noninfo","optim","2.92","","46","1","2","0","null","imgNWTK/square.png","imgNWTK/triangle.png","imgNWTK/square.png","73","0","","",""
"5715","","","bandit-task-exp6","57","1263246","0.0-10.0-0.1","male","18","Chinese","78859","26056","imgNWTK/square.png","imgNWTK/triangle.png","imgNWTK/square.png","imgNWTK/triangle.png","noninfo","optim","2.92","","47","1","1","90","null","imgNWTK/square.png","imgNWTK/triangle.png","imgNWTK/square.png","50","0","","",""
"7279","","","bandit-task-exp6","58","1296846","0.0-10.0-0.2","male","18","Chinese","78859","26056","imgNWTK/square.png","imgNWTK/triangle.png","imgNWTK/square.png","imgNWTK/triangle.png","noninfo","optim","2.92","","48","2","1","0","null","imgNWTK/square.png","imgNWTK/triangle.png","imgNWTK/triangle.png","0","50","","",""
"5338","","","bandit-task-exp6","59","1328631","0.0-10.0-0.3","male","18","Chinese","78859","26056","imgNWTK/square.png","imgNWTK/triangle.png","imgNWTK/square.png","imgNWTK/triangle.png","noninfo","optim","2.92","","49","1","2","0","null","imgNWTK/square.png","imgNWTK/triangle.png","imgNWTK/square.png","20","0","","",""
"5050","","","bandit-task-exp6","60","1355438","0.0-10.0-0.4","male","18","Chinese","78859","26056","imgNWTK/square.png","imgNWTK/triangle.png","imgNWTK/square.png","imgNWTK/triangle.png","noninfo","optim","2.92","","50","1","2","0","null","imgNWTK/triangle.png","imgNWTK/square.png","imgNWTK/square.png","0","20","","",""
"5597","","","bandit-task-exp6","61","1382745","0.0-10.0-0.5","male","18","Chinese","78859","26056","imgNWTK/square.png","imgNWTK/triangle.png","imgNWTK/square.png","imgNWTK/triangle.png","noninfo","optim","2.92","","51","1","2","0","null","imgNWTK/triangle.png","imgNWTK/square.png","imgNWTK/square.png","0","20","","",""
"4691","","","bandit-task-exp6","62","1410111","0.0-10.0-0.6","male","18","Chinese","78859","26056","imgNWTK/square.png","imgNWTK/triangle.png","imgNWTK/square.png","imgNWTK/triangle.png","noninfo","optim","2.92","","52","1","2","0","null","imgNWTK/triangle.png","imgNWTK/square.png","imgNWTK/square.png","0","34","","",""
"5783","","","bandit-task-exp6","63","1437566","0.0-10.0-0.7","male","18","Chinese","78859","26056","imgNWTK/square.png","imgNWTK/triangle.png","imgNWTK/square.png","imgNWTK/triangle.png","noninfo","optim","2.92","","53","2","2","113","null","imgNWTK/square.png","imgNWTK/triangle.png","imgNWTK/triangle.png","0","54","","",""
"3688","","","bandit-task-exp6","64","1462784","0.0-10.0-0.8","male","18","Chinese","78859","26056","imgNWTK/square.png","imgNWTK/triangle.png","imgNWTK/square.png","imgNWTK/triangle.png","noninfo","optim","2.92","","54","2","1","0","null","imgNWTK/square.png","imgNWTK/triangle.png","imgNWTK/triangle.png","0","67","","",""
"5267","","","bandit-task-exp6","65","1489805","0.0-10.0-0.9","male","18","Chinese","78859","26056","imgNWTK/square.png","imgNWTK/triangle.png","imgNWTK/square.png","imgNWTK/triangle.png","noninfo","optim","2.92","","55","2","1","0","null","imgNWTK/square.png","imgNWTK/triangle.png","imgNWTK/triangle.png","0","67","","",""
"5696","","","bandit-task-exp6","66","1521431","0.0-10.0-0.10","male","18","Chinese","78859","26056","imgNWTK/square.png","imgNWTK/triangle.png","imgNWTK/square.png","imgNWTK/triangle.png","noninfo","optim","2.92","","56","2","2","121","null","imgNWTK/square.png","imgNWTK/triangle.png","imgNWTK/triangle.png","0","56","","",""
"4132","","","bandit-task-exp6","67","1546990","0.0-10.0-0.11","male","18","Chinese","78859","26056","imgNWTK/square.png","imgNWTK/triangle.png","imgNWTK/square.png","imgNWTK/triangle.png","noninfo","optim","2.92","","57","2","1","0","null","imgNWTK/square.png","imgNWTK/triangle.png","imgNWTK/triangle.png","0","67","","",""
"4131","","","bandit-task-exp6","68","1576494","0.0-10.0-0.12","male","18","Chinese","78859","26056","imgNWTK/square.png","imgNWTK/triangle.png","imgNWTK/square.png","imgNWTK/triangle.png","noninfo","optim","2.92","","58","2","2","116","null","imgNWTK/square.png","imgNWTK/triangle.png","imgNWTK/triangle.png","0","67","","",""
"3965","","","bandit-task-exp6","69","1606368","0.0-10.0-0.13","male","18","Chinese","78859","26056","imgNWTK/square.png","imgNWTK/triangle.png","imgNWTK/square.png","imgNWTK/triangle.png","noninfo","optim","2.92","","59","2","1","0","null","imgNWTK/square.png","imgNWTK/triangle.png","imgNWTK/triangle.png","0","67","","",""
"6358","","","bandit-task-exp6","70","1635710","0.0-10.0-0.14","male","18","Chinese","78859","26056","imgNWTK/square.png","imgNWTK/triangle.png","imgNWTK/square.png","imgNWTK/triangle.png","noninfo","optim","2.92","","60","2","2","120","null","imgNWTK/square.png","imgNWTK/triangle.png","imgNWTK/triangle.png","0","89","","",""
"2066","<p> Congratulations, you have finished the main part of the experiment. </p><p>Before you finish, we have a few short questions about the options and outcomes you saw in the task.</p>","0","html-button-response","71","1637790","0.0-11.0","male","18","Chinese","78859","26056","imgNWTK/square.png","imgNWTK/triangle.png","imgNWTK/square.png","imgNWTK/triangle.png","noninfo","optim","2.92","","","","","","","","","","","","","",""
"6197","<p><b>Now, imagine that you clicked on the below button for another 10 trials (this includes <i> BOTH WIN and NO-WIN trials</i>).</p> <img src= 'imgNWTK/square.png'></img></br></br> <p><b>Please type the reward (number of points) you would expect to receive on every trial.</br> Click start to begin.</p>","0","html-button-response","72","1643990","0.0-12.0","male","18","Chinese","78859","26056","imgNWTK/square.png","imgNWTK/triangle.png","imgNWTK/square.png","imgNWTK/triangle.png","noninfo","optim","2.92","","","","","","","","","","","","","",""
"6780.800000190735","","","survey-number","73","1650784","0.0-13.0-0.0","male","18","Chinese","78859","26056","imgNWTK/square.png","imgNWTK/triangle.png","imgNWTK/square.png","imgNWTK/triangle.png","noninfo","optim","2.92","{""undefined"":""45""}","","","","","","","","","","","","imgNWTK/square.png",""
"2265.7999999523163","","","survey-number","74","1653054","0.0-13.0-0.1","male","18","Chinese","78859","26056","imgNWTK/square.png","imgNWTK/triangle.png","imgNWTK/square.png","imgNWTK/triangle.png","noninfo","optim","2.92","{""undefined"":""87""}","","","","","","","","","","","","imgNWTK/square.png",""
"1678.7999999523163","","","survey-number","75","1654735","0.0-13.0-0.2","male","18","Chinese","78859","26056","imgNWTK/square.png","imgNWTK/triangle.png","imgNWTK/square.png","imgNWTK/triangle.png","noninfo","optim","2.92","{""undefined"":""65""}","","","","","","","","","","","","imgNWTK/square.png",""
"1620.5999999046326","","","survey-number","76","1656358","0.0-13.0-0.3","male","18","Chinese","78859","26056","imgNWTK/square.png","imgNWTK/triangle.png","imgNWTK/square.png","imgNWTK/triangle.png","noninfo","optim","2.92","{""undefined"":""99""}","","","","","","","","","","","","imgNWTK/square.png",""
"1893.6000001430511","","","survey-number","77","1658255","0.0-13.0-0.4","male","18","Chinese","78859","26056","imgNWTK/square.png","imgNWTK/triangle.png","imgNWTK/square.png","imgNWTK/triangle.png","noninfo","optim","2.92","{""undefined"":""100""}","","","","","","","","","","","","imgNWTK/square.png",""
"6150.599999904633","","","survey-number","78","1664409","0.0-13.0-0.5","male","18","Chinese","78859","26056","imgNWTK/square.png","imgNWTK/triangle.png","imgNWTK/square.png","imgNWTK/triangle.png","noninfo","optim","2.92","{""undefined"":""105""}","","","","","","","","","","","","imgNWTK/square.png",""
"1582","","","survey-number","79","1665993","0.0-13.0-0.6","male","18","Chinese","78859","26056","imgNWTK/square.png","imgNWTK/triangle.png","imgNWTK/square.png","imgNWTK/triangle.png","noninfo","optim","2.92","{""undefined"":""99""}","","","","","","","","","","","","imgNWTK/square.png",""
"1497.5","","","survey-number","80","1667493","0.0-13.0-0.7","male","18","Chinese","78859","26056","imgNWTK/square.png","imgNWTK/triangle.png","imgNWTK/square.png","imgNWTK/triangle.png","noninfo","optim","2.92","{""undefined"":""76""}","","","","","","","","","","","","imgNWTK/square.png",""
"2183.0999999046326","","","survey-number","81","1669679","0.0-13.0-0.8","male","18","Chinese","78859","26056","imgNWTK/square.png","imgNWTK/triangle.png","imgNWTK/square.png","imgNWTK/triangle.png","noninfo","optim","2.92","{""undefined"":""89""}","","","","","","","","","","","","imgNWTK/square.png",""
"2565.7000000476837","","","survey-number","82","1672247","0.0-13.0-0.9","male","18","Chinese","78859","26056","imgNWTK/square.png","imgNWTK/triangle.png","imgNWTK/square.png","imgNWTK/triangle.png","noninfo","optim","2.92","{""undefined"":""99""}","","","","","","","","","","","","imgNWTK/square.png",""
"3798","<p><b>Imagine that you clicked on the below button for another 10 trials (this includes <i> both WIN and NO-WIN trials</i>).</p> <img src= 'imgNWTK/triangle.png'></img></br></br> <p><b>Please type the reward (number of points) you would expect to receive on every trial.</br> Click start to begin.</p>","0","html-button-response","83","1676045","0.0-14.0","male","18","Chinese","78859","26056","imgNWTK/square.png","imgNWTK/triangle.png","imgNWTK/square.png","imgNWTK/triangle.png","noninfo","optim","2.92","","","","","","","","","","","","","",""
"2763.7999999523163","","","survey-number","84","1678812","0.0-15.0-0.0","male","18","Chinese","78859","26056","imgNWTK/square.png","imgNWTK/triangle.png","imgNWTK/square.png","imgNWTK/triangle.png","noninfo","optim","2.92","{""undefined"":""99""}","","","","","","","","","","","","imgNWTK/triangle.png",""
"831","","","survey-number","85","1679646","0.0-15.0-0.1","male","18","Chinese","78859","26056","imgNWTK/square.png","imgNWTK/triangle.png","imgNWTK/square.png","imgNWTK/triangle.png","noninfo","optim","2.92","{""undefined"":""99""}","","","","","","","","","","","","imgNWTK/triangle.png",""
"474.2000000476837","","","survey-number","86","1680122","0.0-15.0-0.2","male","18","Chinese","78859","26056","imgNWTK/square.png","imgNWTK/triangle.png","imgNWTK/square.png","imgNWTK/triangle.png","noninfo","optim","2.92","{""undefined"":""99""}","","","","","","","","","","","","imgNWTK/triangle.png",""
"861.4000000953674","","","survey-number","87","1680987","0.0-15.0-0.3","male","18","Chinese","78859","26056","imgNWTK/square.png","imgNWTK/triangle.png","imgNWTK/square.png","imgNWTK/triangle.png","noninfo","optim","2.92","{""undefined"":""99""}","","","","","","","","","","","","imgNWTK/triangle.png",""
"793.0999999046326","","","survey-number","88","1681782","0.0-15.0-0.4","male","18","Chinese","78859","26056","imgNWTK/square.png","imgNWTK/triangle.png","imgNWTK/square.png","imgNWTK/triangle.png","noninfo","optim","2.92","{""undefined"":""99""}","","","","","","","","","","","","imgNWTK/triangle.png",""
"757.2000000476837","","","survey-number","89","1682543","0.0-15.0-0.5","male","18","Chinese","78859","26056","imgNWTK/square.png","imgNWTK/triangle.png","imgNWTK/square.png","imgNWTK/triangle.png","noninfo","optim","2.92","{""undefined"":""99""}","","","","","","","","","","","","imgNWTK/triangle.png",""
"820.5999999046326","","","survey-number","90","1683367","0.0-15.0-0.6","male","18","Chinese","78859","26056","imgNWTK/square.png","imgNWTK/triangle.png","imgNWTK/square.png","imgNWTK/triangle.png","noninfo","optim","2.92","{""undefined"":""99""}","","","","","","","","","","","","imgNWTK/triangle.png",""
"763","","","survey-number","91","1684133","0.0-15.0-0.7","male","18","Chinese","78859","26056","imgNWTK/square.png","imgNWTK/triangle.png","imgNWTK/square.png","imgNWTK/triangle.png","noninfo","optim","2.92","{""undefined"":""99""}","","","","","","","","","","","","imgNWTK/triangle.png",""
"772.1000001430511","","","survey-number","92","1684909","0.0-15.0-0.8","male","18","Chinese","78859","26056","imgNWTK/square.png","imgNWTK/triangle.png","imgNWTK/square.png","imgNWTK/triangle.png","noninfo","optim","2.92","{""undefined"":""99""}","","","","","","","","","","","","imgNWTK/triangle.png",""
"736.6000001430511","","","survey-number","93","1685649","0.0-15.0-0.9","male","18","Chinese","78859","26056","imgNWTK/square.png","imgNWTK/triangle.png","imgNWTK/square.png","imgNWTK/triangle.png","noninfo","optim","2.92","{""undefined"":""99""}","","","","","","","","","","","","imgNWTK/triangle.png",""
"18251.10000014305","","","survey-number","94","1703933","0.0-16.0","male","18","Chinese","78859","26056","imgNWTK/square.png","imgNWTK/triangle.png","imgNWTK/square.png","imgNWTK/triangle.png","noninfo","optim","2.92","{""undefined"":""99""}","","","","","","","","","","","","","imgNWTK/square.png"
"10106.799999952316","","","survey-number","95","1714045","0.0-17.0","male","18","Chinese","78859","26056","imgNWTK/square.png","imgNWTK/triangle.png","imgNWTK/square.png","imgNWTK/triangle.png","noninfo","optim","2.92","{""undefined"":""99""}","","","","","","","","","","","","","imgNWTK/triangle.png"
"15501","<p style=""text-align:left;"">Great! We are almost at the end of the study... (Please do not close the browser window yet.)</p><p> Your final points balance is 2916, which equals to a bonus payment of $2.92. The payment can be collected from MAT721; please email amy.x.li@unsw.edu.au at least 24 hours prior to collection so that this is ready for you.</p><p style=""text-align:left;"">To view the debriefing form, please click <a href=""./imgNWTK/debrief_3205.pdf"" target=""_blank"">here</a> to download a copy.</p><p style=""text-align:left;"">Then, <b>please click the below button</b> to confirm that you have received your debrief and to complete the study. Upon clicking ""Finish!"", your SONA credit will be automatically assigned.</p>","0","html-button-response","96","1729550","0.0-18.0","male","18","Chinese","78859","26056","imgNWTK/square.png","imgNWTK/triangle.png","imgNWTK/square.png","imgNWTK/triangle.png","noninfo","optim","2.92","","","","","","","","","","","","","",""
