"rt","stimulus","button_pressed","trial_type","trial_index","time_elapsed","internal_node_id","gender","age","language","PID","sona_id","subStim","optStim","stim1","stim2","infoCond","optimCond","bonus","responses","banditTrial","choice","cue","feedback","estimateData","leftOption","rightOption","choiceName","leftInput","rightInput","key_press","postQ","singleEst"
"3482","<p>Thank you for signing up to participate in SONA Study 465! <br> During this study, please focus on the experiment and refrain from activities such as:</p>- <b>Switching to other tabs on your browser (this will be monitored via the experiment)</br> - Using your mobile phone/cell phone</br> - Communicating with others</br></br></b><p>This way, you are helping to provide data that is useful for psychological research. We thank you for your cooperation!</p>","0","html-button-response","0","3484","0.0-0.0","male","21","Australia","24514","25809","neither","neither","imgNWTK/KeepItSecret.jpg","imgNWTK/FindOutNow.jpg","info","eq","3.19","","","","","","","","","","","","","",""
"2888","<p>Welcome to the experiment!</p><p>You will now read some instructions about the task. Press the 'Next' button to continue. </p>","0","html-button-response","1","6373","0.0-1.0","male","21","Australia","24514","25809","neither","neither","imgNWTK/KeepItSecret.jpg","imgNWTK/FindOutNow.jpg","info","eq","3.19","","","","","","","","","","","","","",""
"14261","<p> On each trial throughout the experiment you will choose between the options </br><b> Find Out Now </b> and <b> Keep It Secret </b>, as shown below.</p><div><div style= 'float: left; width: 300px; margin: 10px 10px;'><img src= 'imgNWTK/KeepItSecret.jpg'></img></div><div style= 'float: right; width: 300px; margin: 10px 10px;'><img src= 'imgNWTK/FindOutNow.jpg'></img></div></div><br/><br/><br/><br/><br/><br/><br/><br/><br/><br/><br/><p>Each option results in winning points or receiving 0 points.</br>There is a 50% chance of either winning or receiving 0 points.</p><p>You won't receive the outcome until after a <b> 20 second delay</b>. However, selecting the Find Out Now option will allow you to find out about the outcome early, whereas the Keep It Secret option will not. </p>","0","html-button-response","2","20635","0.0-2.0-0.0","male","21","Australia","24514","25809","neither","neither","imgNWTK/KeepItSecret.jpg","imgNWTK/FindOutNow.jpg","info","eq","3.19","","","","","","","","","","","","","",""
"26530","<img src= 'cues/Experiment6.png'></img><p>As seen above, when choosing the <b>'Find Out Now'</b> option, you will receive either a happy face or sad face.</br>The happy face means you will win points after the delay, whereas the sad face means you will receive 0 points.</br></p><p> When choosing the <b> 'Keep it Secret' </b> option you will receive a confused face.</br> This face appears regardless of whether you are going to win points or not. </p>In short, choosing 'Find Out Now' allows you to find out the outcome before you experience it (after the delay).</br></br>","0","html-button-response","3","47165","0.0-2.0-1.0","male","21","Australia","24514","25809","neither","neither","imgNWTK/KeepItSecret.jpg","imgNWTK/FindOutNow.jpg","info","eq","3.19","","","","","","","","","","","","","",""
"8100","<img src= 'cues/winTrials_info.png' width = '1200'></img><p>To reiterate, 50% of the outcomes of each option will be WIN TRIALS, and the other 50% will be NO-WIN TRIALS.","0","html-button-response","4","55266","0.0-2.0-2.0","male","21","Australia","24514","25809","neither","neither","imgNWTK/KeepItSecret.jpg","imgNWTK/FindOutNow.jpg","info","eq","3.19","","","","","","","","","","","","","",""
"10273","<p> There will be <b>four blocks</b> in the experiment.</br>You will be given a short 15 second break between each block.</p><p><b>The points and the options will remain the same between the blocks.</b></p>The blocks are there just to give you a small break.</br></br><p>The points you earn in the task are also equal to <b> actual money</b>.</br> <b>1000 points is equal to $1.</b></p><p>This is the rate you will be paid at the experiment's end.","0","html-button-response","5","65540","0.0-2.0-3.0","male","21","Australia","24514","25809","neither","neither","imgNWTK/KeepItSecret.jpg","imgNWTK/FindOutNow.jpg","info","eq","3.19","","","","","","","","","","","","","",""
"18051","","","survey-multi-choice","6","83594","0.0-2.0-4.0","male","21","Australia","24514","25809","neither","neither","imgNWTK/KeepItSecret.jpg","imgNWTK/FindOutNow.jpg","info","eq","3.19","{""Q0"":""20 Seconds"",""Q1"":""True"",""Q2"":""Equally"",""Q3"":""True""}","","","","","","","","","","","","",""
"5665","<p> Well done, all your answers were correct! <br> The experiment is about to start now. <br/> Click start to continue, or email your researcher <b>(amy.x.li@unsw.edu.au)</b> if you have any questions before starting.","0","html-button-response","7","89262","0.0-3.0","male","21","Australia","24514","25809","neither","neither","imgNWTK/KeepItSecret.jpg","imgNWTK/FindOutNow.jpg","info","eq","3.19","","","","","","","","","","","","","",""
"1967","","","bandit-task-exp6","8","113445","0.0-4.0-0.0","male","21","Australia","24514","25809","neither","neither","imgNWTK/KeepItSecret.jpg","imgNWTK/FindOutNow.jpg","info","eq","3.19","","1","2","1","0","null","imgNWTK/FindOutNow.jpg","imgNWTK/KeepItSecret.jpg","imgNWTK/FindOutNow.jpg","NaN","NaN","","",""
"3724","","","bandit-task-exp6","9","138882","0.0-4.0-0.1","male","21","Australia","24514","25809","neither","neither","imgNWTK/KeepItSecret.jpg","imgNWTK/FindOutNow.jpg","info","eq","3.19","","2","1","2","0","null","imgNWTK/KeepItSecret.jpg","imgNWTK/FindOutNow.jpg","imgNWTK/KeepItSecret.jpg","NaN","NaN","","",""
"1030","","","bandit-task-exp6","10","161654","0.0-4.0-0.2","male","21","Australia","24514","25809","neither","neither","imgNWTK/KeepItSecret.jpg","imgNWTK/FindOutNow.jpg","info","eq","3.19","","3","2","2","95","null","imgNWTK/KeepItSecret.jpg","imgNWTK/FindOutNow.jpg","imgNWTK/FindOutNow.jpg","NaN","NaN","","",""
"1925","","","bandit-task-exp6","11","186218","0.0-4.0-0.3","male","21","Australia","24514","25809","neither","neither","imgNWTK/KeepItSecret.jpg","imgNWTK/FindOutNow.jpg","info","eq","3.19","","4","2","1","0","null","imgNWTK/FindOutNow.jpg","imgNWTK/KeepItSecret.jpg","imgNWTK/FindOutNow.jpg","NaN","NaN","","",""
"797","","","bandit-task-exp6","12","208792","0.0-4.0-0.4","male","21","Australia","24514","25809","neither","neither","imgNWTK/KeepItSecret.jpg","imgNWTK/FindOutNow.jpg","info","eq","3.19","","5","2","1","0","null","imgNWTK/FindOutNow.jpg","imgNWTK/KeepItSecret.jpg","imgNWTK/FindOutNow.jpg","NaN","NaN","","",""
"1011","","","bandit-task-exp6","13","233056","0.0-4.0-0.5","male","21","Australia","24514","25809","neither","neither","imgNWTK/KeepItSecret.jpg","imgNWTK/FindOutNow.jpg","info","eq","3.19","","6","1","1","106","null","imgNWTK/KeepItSecret.jpg","imgNWTK/FindOutNow.jpg","imgNWTK/KeepItSecret.jpg","NaN","NaN","","",""
"1749","","","bandit-task-exp6","14","256846","0.0-4.0-0.6","male","21","Australia","24514","25809","neither","neither","imgNWTK/KeepItSecret.jpg","imgNWTK/FindOutNow.jpg","info","eq","3.19","","7","1","2","0","null","imgNWTK/KeepItSecret.jpg","imgNWTK/FindOutNow.jpg","imgNWTK/KeepItSecret.jpg","NaN","NaN","","",""
"461","","","bandit-task-exp6","15","279646","0.0-4.0-0.7","male","21","Australia","24514","25809","neither","neither","imgNWTK/KeepItSecret.jpg","imgNWTK/FindOutNow.jpg","info","eq","3.19","","8","1","1","101","null","imgNWTK/FindOutNow.jpg","imgNWTK/KeepItSecret.jpg","imgNWTK/KeepItSecret.jpg","NaN","NaN","","",""
"706","","","bandit-task-exp6","16","302868","0.0-4.0-0.8","male","21","Australia","24514","25809","neither","neither","imgNWTK/KeepItSecret.jpg","imgNWTK/FindOutNow.jpg","info","eq","3.19","","9","1","2","0","null","imgNWTK/KeepItSecret.jpg","imgNWTK/FindOutNow.jpg","imgNWTK/KeepItSecret.jpg","NaN","NaN","","",""
"1505","","","bandit-task-exp6","17","326665","0.0-4.0-0.9","male","21","Australia","24514","25809","neither","neither","imgNWTK/KeepItSecret.jpg","imgNWTK/FindOutNow.jpg","info","eq","3.19","","10","1","1","100","null","imgNWTK/FindOutNow.jpg","imgNWTK/KeepItSecret.jpg","imgNWTK/KeepItSecret.jpg","NaN","NaN","","",""
"451","","","bandit-task-exp6","18","349160","0.0-4.0-0.10","male","21","Australia","24514","25809","neither","neither","imgNWTK/KeepItSecret.jpg","imgNWTK/FindOutNow.jpg","info","eq","3.19","","11","2","2","107","null","imgNWTK/KeepItSecret.jpg","imgNWTK/FindOutNow.jpg","imgNWTK/FindOutNow.jpg","NaN","NaN","","",""
"608","","","bandit-task-exp6","19","371440","0.0-4.0-0.11","male","21","Australia","24514","25809","neither","neither","imgNWTK/KeepItSecret.jpg","imgNWTK/FindOutNow.jpg","info","eq","3.19","","12","2","2","103","null","imgNWTK/FindOutNow.jpg","imgNWTK/KeepItSecret.jpg","imgNWTK/FindOutNow.jpg","NaN","NaN","","",""
"470","","","bandit-task-exp6","20","393290","0.0-4.0-0.12","male","21","Australia","24514","25809","neither","neither","imgNWTK/KeepItSecret.jpg","imgNWTK/FindOutNow.jpg","info","eq","3.19","","13","2","2","102","null","imgNWTK/FindOutNow.jpg","imgNWTK/KeepItSecret.jpg","imgNWTK/FindOutNow.jpg","NaN","NaN","","",""
"462","","","bandit-task-exp6","21","415523","0.0-4.0-0.13","male","21","Australia","24514","25809","neither","neither","imgNWTK/KeepItSecret.jpg","imgNWTK/FindOutNow.jpg","info","eq","3.19","","14","2","1","0","null","imgNWTK/FindOutNow.jpg","imgNWTK/KeepItSecret.jpg","imgNWTK/FindOutNow.jpg","NaN","NaN","","",""
"672","","","bandit-task-exp6","22","439234","0.0-4.0-0.14","male","21","Australia","24514","25809","neither","neither","imgNWTK/KeepItSecret.jpg","imgNWTK/FindOutNow.jpg","info","eq","3.19","","15","2","2","99","null","imgNWTK/FindOutNow.jpg","imgNWTK/KeepItSecret.jpg","imgNWTK/FindOutNow.jpg","NaN","NaN","","",""
"null","<p><b> Congratulations, you have finished this block. </b> </p><p>Please take a short break before moving onto the next block.</p><p>The next block will start after a 15 second break.</p><b>Remember, the point rewards are the same between blocks","","html-keyboard-response","23","454242","0.0-5.0","male","21","Australia","24514","25809","neither","neither","imgNWTK/KeepItSecret.jpg","imgNWTK/FindOutNow.jpg","info","eq","3.19","","","","","","","","","","","","null","",""
"2053","","","bandit-task-exp6","24","487096","0.0-6.0-0.0","male","21","Australia","24514","25809","neither","neither","imgNWTK/KeepItSecret.jpg","imgNWTK/FindOutNow.jpg","info","eq","3.19","","16","2","1","0","null","imgNWTK/FindOutNow.jpg","imgNWTK/KeepItSecret.jpg","imgNWTK/FindOutNow.jpg","NaN","NaN","","",""
"1236","","","bandit-task-exp6","25","510427","0.0-6.0-0.1","male","21","Australia","24514","25809","neither","neither","imgNWTK/KeepItSecret.jpg","imgNWTK/FindOutNow.jpg","info","eq","3.19","","17","2","1","0","null","imgNWTK/FindOutNow.jpg","imgNWTK/KeepItSecret.jpg","imgNWTK/FindOutNow.jpg","NaN","NaN","","",""
"473","","","bandit-task-exp6","26","533255","0.0-6.0-0.2","male","21","Australia","24514","25809","neither","neither","imgNWTK/KeepItSecret.jpg","imgNWTK/FindOutNow.jpg","info","eq","3.19","","18","1","1","97","null","imgNWTK/FindOutNow.jpg","imgNWTK/KeepItSecret.jpg","imgNWTK/KeepItSecret.jpg","NaN","NaN","","",""
"507","","","bandit-task-exp6","27","557133","0.0-6.0-0.3","male","21","Australia","24514","25809","neither","neither","imgNWTK/KeepItSecret.jpg","imgNWTK/FindOutNow.jpg","info","eq","3.19","","19","1","1","109","null","imgNWTK/KeepItSecret.jpg","imgNWTK/FindOutNow.jpg","imgNWTK/KeepItSecret.jpg","NaN","NaN","","",""
"1556","","","bandit-task-exp6","28","581130","0.0-6.0-0.4","male","21","Australia","24514","25809","neither","neither","imgNWTK/KeepItSecret.jpg","imgNWTK/FindOutNow.jpg","info","eq","3.19","","20","1","1","91","null","imgNWTK/KeepItSecret.jpg","imgNWTK/FindOutNow.jpg","imgNWTK/KeepItSecret.jpg","NaN","NaN","","",""
"3492","","","bandit-task-exp6","29","606906","0.0-6.0-0.5","male","21","Australia","24514","25809","neither","neither","imgNWTK/KeepItSecret.jpg","imgNWTK/FindOutNow.jpg","info","eq","3.19","","21","1","2","0","null","imgNWTK/FindOutNow.jpg","imgNWTK/KeepItSecret.jpg","imgNWTK/KeepItSecret.jpg","NaN","NaN","","",""
"393","","","bandit-task-exp6","30","629174","0.0-6.0-0.6","male","21","Australia","24514","25809","neither","neither","imgNWTK/KeepItSecret.jpg","imgNWTK/FindOutNow.jpg","info","eq","3.19","","22","2","1","0","null","imgNWTK/KeepItSecret.jpg","imgNWTK/FindOutNow.jpg","imgNWTK/FindOutNow.jpg","NaN","NaN","","",""
"448","","","bandit-task-exp6","31","651730","0.0-6.0-0.7","male","21","Australia","24514","25809","neither","neither","imgNWTK/KeepItSecret.jpg","imgNWTK/FindOutNow.jpg","info","eq","3.19","","23","1","2","0","null","imgNWTK/FindOutNow.jpg","imgNWTK/KeepItSecret.jpg","imgNWTK/KeepItSecret.jpg","NaN","NaN","","",""
"483","","","bandit-task-exp6","32","675185","0.0-6.0-0.8","male","21","Australia","24514","25809","neither","neither","imgNWTK/KeepItSecret.jpg","imgNWTK/FindOutNow.jpg","info","eq","3.19","","24","1","1","91","null","imgNWTK/FindOutNow.jpg","imgNWTK/KeepItSecret.jpg","imgNWTK/KeepItSecret.jpg","NaN","NaN","","",""
"738","","","bandit-task-exp6","33","697976","0.0-6.0-0.9","male","21","Australia","24514","25809","neither","neither","imgNWTK/KeepItSecret.jpg","imgNWTK/FindOutNow.jpg","info","eq","3.19","","25","1","1","105","null","imgNWTK/KeepItSecret.jpg","imgNWTK/FindOutNow.jpg","imgNWTK/KeepItSecret.jpg","NaN","NaN","","",""
"2020","","","bandit-task-exp6","34","722097","0.0-6.0-0.10","male","21","Australia","24514","25809","neither","neither","imgNWTK/KeepItSecret.jpg","imgNWTK/FindOutNow.jpg","info","eq","3.19","","26","1","1","109","null","imgNWTK/FindOutNow.jpg","imgNWTK/KeepItSecret.jpg","imgNWTK/KeepItSecret.jpg","NaN","NaN","","",""
"2992","","","bandit-task-exp6","35","747189","0.0-6.0-0.11","male","21","Australia","24514","25809","neither","neither","imgNWTK/KeepItSecret.jpg","imgNWTK/FindOutNow.jpg","info","eq","3.19","","27","2","2","110","null","imgNWTK/FindOutNow.jpg","imgNWTK/KeepItSecret.jpg","imgNWTK/FindOutNow.jpg","NaN","NaN","","",""
"540","","","bandit-task-exp6","36","769304","0.0-6.0-0.12","male","21","Australia","24514","25809","neither","neither","imgNWTK/KeepItSecret.jpg","imgNWTK/FindOutNow.jpg","info","eq","3.19","","28","2","2","105","null","imgNWTK/KeepItSecret.jpg","imgNWTK/FindOutNow.jpg","imgNWTK/FindOutNow.jpg","NaN","NaN","","",""
"482","","","bandit-task-exp6","37","791383","0.0-6.0-0.13","male","21","Australia","24514","25809","neither","neither","imgNWTK/KeepItSecret.jpg","imgNWTK/FindOutNow.jpg","info","eq","3.19","","29","2","1","0","null","imgNWTK/FindOutNow.jpg","imgNWTK/KeepItSecret.jpg","imgNWTK/FindOutNow.jpg","NaN","NaN","","",""
"710","","","bandit-task-exp6","38","813685","0.0-6.0-0.14","male","21","Australia","24514","25809","neither","neither","imgNWTK/KeepItSecret.jpg","imgNWTK/FindOutNow.jpg","info","eq","3.19","","30","2","1","0","null","imgNWTK/FindOutNow.jpg","imgNWTK/KeepItSecret.jpg","imgNWTK/FindOutNow.jpg","NaN","NaN","","",""
"null","<p><b> Congratulations, you have finished this block. </b> </p><p>Please take a short break before moving onto the next block.</p><p>The next block will start after a 15 second break.</p><b>Remember, the point rewards are the same between blocks","","html-keyboard-response","39","828700","0.0-7.0","male","21","Australia","24514","25809","neither","neither","imgNWTK/KeepItSecret.jpg","imgNWTK/FindOutNow.jpg","info","eq","3.19","","","","","","","","","","","","null","",""
"2125","","","bandit-task-exp6","40","853371","0.0-8.0-0.0","male","21","Australia","24514","25809","neither","neither","imgNWTK/KeepItSecret.jpg","imgNWTK/FindOutNow.jpg","info","eq","3.19","","31","1","1","106","null","imgNWTK/KeepItSecret.jpg","imgNWTK/FindOutNow.jpg","imgNWTK/KeepItSecret.jpg","NaN","NaN","","",""
"706","","","bandit-task-exp6","41","876024","0.0-8.0-0.1","male","21","Australia","24514","25809","neither","neither","imgNWTK/KeepItSecret.jpg","imgNWTK/FindOutNow.jpg","info","eq","3.19","","32","2","2","104","null","imgNWTK/KeepItSecret.jpg","imgNWTK/FindOutNow.jpg","imgNWTK/FindOutNow.jpg","NaN","NaN","","",""
"471","","","bandit-task-exp6","42","898822","0.0-8.0-0.2","male","21","Australia","24514","25809","neither","neither","imgNWTK/KeepItSecret.jpg","imgNWTK/FindOutNow.jpg","info","eq","3.19","","33","1","1","110","null","imgNWTK/FindOutNow.jpg","imgNWTK/KeepItSecret.jpg","imgNWTK/KeepItSecret.jpg","NaN","NaN","","",""
"542","","","bandit-task-exp6","43","922922","0.0-8.0-0.3","male","21","Australia","24514","25809","neither","neither","imgNWTK/KeepItSecret.jpg","imgNWTK/FindOutNow.jpg","info","eq","3.19","","34","2","1","0","null","imgNWTK/FindOutNow.jpg","imgNWTK/KeepItSecret.jpg","imgNWTK/FindOutNow.jpg","NaN","NaN","","",""
"607","","","bandit-task-exp6","44","945875","0.0-8.0-0.4","male","21","Australia","24514","25809","neither","neither","imgNWTK/KeepItSecret.jpg","imgNWTK/FindOutNow.jpg","info","eq","3.19","","35","1","1","107","null","imgNWTK/KeepItSecret.jpg","imgNWTK/FindOutNow.jpg","imgNWTK/KeepItSecret.jpg","NaN","NaN","","",""
"1023","","","bandit-task-exp6","45","970554","0.0-8.0-0.5","male","21","Australia","24514","25809","neither","neither","imgNWTK/KeepItSecret.jpg","imgNWTK/FindOutNow.jpg","info","eq","3.19","","36","1","2","0","null","imgNWTK/FindOutNow.jpg","imgNWTK/KeepItSecret.jpg","imgNWTK/KeepItSecret.jpg","NaN","NaN","","",""
"459","","","bandit-task-exp6","46","993266","0.0-8.0-0.6","male","21","Australia","24514","25809","neither","neither","imgNWTK/KeepItSecret.jpg","imgNWTK/FindOutNow.jpg","info","eq","3.19","","37","2","1","0","null","imgNWTK/KeepItSecret.jpg","imgNWTK/FindOutNow.jpg","imgNWTK/FindOutNow.jpg","NaN","NaN","","",""
"1467","","","bandit-task-exp6","47","1016268","0.0-8.0-0.7","male","21","Australia","24514","25809","neither","neither","imgNWTK/KeepItSecret.jpg","imgNWTK/FindOutNow.jpg","info","eq","3.19","","38","2","2","108","null","imgNWTK/FindOutNow.jpg","imgNWTK/KeepItSecret.jpg","imgNWTK/FindOutNow.jpg","NaN","NaN","","",""
"1758","","","bandit-task-exp6","48","1041247","0.0-8.0-0.8","male","21","Australia","24514","25809","neither","neither","imgNWTK/KeepItSecret.jpg","imgNWTK/FindOutNow.jpg","info","eq","3.19","","39","2","2","93","null","imgNWTK/KeepItSecret.jpg","imgNWTK/FindOutNow.jpg","imgNWTK/FindOutNow.jpg","NaN","NaN","","",""
"864","","","bandit-task-exp6","49","1064507","0.0-8.0-0.9","male","21","Australia","24514","25809","neither","neither","imgNWTK/KeepItSecret.jpg","imgNWTK/FindOutNow.jpg","info","eq","3.19","","40","2","2","100","null","imgNWTK/FindOutNow.jpg","imgNWTK/KeepItSecret.jpg","imgNWTK/FindOutNow.jpg","NaN","NaN","","",""
"1615","","","bandit-task-exp6","50","1092791","0.0-8.0-0.10","male","21","Australia","24514","25809","neither","neither","imgNWTK/KeepItSecret.jpg","imgNWTK/FindOutNow.jpg","info","eq","3.19","","41","2","1","0","null","imgNWTK/KeepItSecret.jpg","imgNWTK/FindOutNow.jpg","imgNWTK/FindOutNow.jpg","NaN","NaN","","",""
"1287","","","bandit-task-exp6","51","1116880","0.0-8.0-0.11","male","21","Australia","24514","25809","neither","neither","imgNWTK/KeepItSecret.jpg","imgNWTK/FindOutNow.jpg","info","eq","3.19","","42","1","2","0","null","imgNWTK/FindOutNow.jpg","imgNWTK/KeepItSecret.jpg","imgNWTK/KeepItSecret.jpg","NaN","NaN","","",""
"531","","","bandit-task-exp6","52","1141397","0.0-8.0-0.12","male","21","Australia","24514","25809","neither","neither","imgNWTK/KeepItSecret.jpg","imgNWTK/FindOutNow.jpg","info","eq","3.19","","43","2","2","109","null","imgNWTK/KeepItSecret.jpg","imgNWTK/FindOutNow.jpg","imgNWTK/FindOutNow.jpg","NaN","NaN","","",""
"411","","","bandit-task-exp6","53","1176465","0.0-8.0-0.13","male","21","Australia","24514","25809","neither","neither","imgNWTK/KeepItSecret.jpg","imgNWTK/FindOutNow.jpg","info","eq","3.19","","44","1","2","0","null","imgNWTK/KeepItSecret.jpg","imgNWTK/FindOutNow.jpg","imgNWTK/KeepItSecret.jpg","NaN","NaN","","",""
"398","","","bandit-task-exp6","54","1216782","0.0-8.0-0.14","male","21","Australia","24514","25809","neither","neither","imgNWTK/KeepItSecret.jpg","imgNWTK/FindOutNow.jpg","info","eq","3.19","","45","1","1","104","null","imgNWTK/FindOutNow.jpg","imgNWTK/KeepItSecret.jpg","imgNWTK/KeepItSecret.jpg","NaN","NaN","","",""
"null","<p><b> Congratulations, you have finished this block. </b> </p><p>Please take a short break before moving onto the next block.</p><p>The next block will start after a 15 second break.</p><b>Remember, the point rewards are the same between blocks","","html-keyboard-response","55","1231783","0.0-9.0","male","21","Australia","24514","25809","neither","neither","imgNWTK/KeepItSecret.jpg","imgNWTK/FindOutNow.jpg","info","eq","3.19","","","","","","","","","","","","null","",""
"66255","","","bandit-task-exp6","56","1320330","0.0-10.0-0.0","male","21","Australia","24514","25809","neither","neither","imgNWTK/KeepItSecret.jpg","imgNWTK/FindOutNow.jpg","info","eq","3.19","","46","1","2","0","null","imgNWTK/FindOutNow.jpg","imgNWTK/KeepItSecret.jpg","imgNWTK/KeepItSecret.jpg","95","109","","",""
"14614","","","bandit-task-exp6","57","1357902","0.0-10.0-0.1","male","21","Australia","24514","25809","neither","neither","imgNWTK/KeepItSecret.jpg","imgNWTK/FindOutNow.jpg","info","eq","3.19","","47","1","1","107","null","imgNWTK/FindOutNow.jpg","imgNWTK/KeepItSecret.jpg","imgNWTK/KeepItSecret.jpg","99","103","","",""
"12798","","","bandit-task-exp6","58","1392911","0.0-10.0-0.2","male","21","Australia","24514","25809","neither","neither","imgNWTK/KeepItSecret.jpg","imgNWTK/FindOutNow.jpg","info","eq","3.19","","48","1","2","0","null","imgNWTK/KeepItSecret.jpg","imgNWTK/FindOutNow.jpg","imgNWTK/KeepItSecret.jpg","101","0","","",""
"5338","","","bandit-task-exp6","59","1422846","0.0-10.0-0.3","male","21","Australia","24514","25809","neither","neither","imgNWTK/KeepItSecret.jpg","imgNWTK/FindOutNow.jpg","info","eq","3.19","","49","1","1","99","null","imgNWTK/KeepItSecret.jpg","imgNWTK/FindOutNow.jpg","imgNWTK/KeepItSecret.jpg","98","0","","",""
"10889","","","bandit-task-exp6","60","1477444","0.0-10.0-0.4","male","21","Australia","24514","25809","neither","neither","imgNWTK/KeepItSecret.jpg","imgNWTK/FindOutNow.jpg","info","eq","3.19","","50","1","1","100","null","imgNWTK/KeepItSecret.jpg","imgNWTK/FindOutNow.jpg","imgNWTK/KeepItSecret.jpg","95","103","","",""
"6573","","","bandit-task-exp6","61","1528117","0.0-10.0-0.5","male","21","Australia","24514","25809","neither","neither","imgNWTK/KeepItSecret.jpg","imgNWTK/FindOutNow.jpg","info","eq","3.19","","51","2","2","93","null","imgNWTK/KeepItSecret.jpg","imgNWTK/FindOutNow.jpg","imgNWTK/FindOutNow.jpg","98","104","","",""
"8223","","","bandit-task-exp6","62","1559006","0.0-10.0-0.6","male","21","Australia","24514","25809","neither","neither","imgNWTK/KeepItSecret.jpg","imgNWTK/FindOutNow.jpg","info","eq","3.19","","52","2","1","0","null","imgNWTK/KeepItSecret.jpg","imgNWTK/FindOutNow.jpg","imgNWTK/FindOutNow.jpg","97","105","","",""
"7553","","","bandit-task-exp6","63","1588652","0.0-10.0-0.7","male","21","Australia","24514","25809","neither","neither","imgNWTK/KeepItSecret.jpg","imgNWTK/FindOutNow.jpg","info","eq","3.19","","53","2","1","0","null","imgNWTK/KeepItSecret.jpg","imgNWTK/FindOutNow.jpg","imgNWTK/FindOutNow.jpg","99","106","","",""
"5249","","","bandit-task-exp6","64","1615764","0.0-10.0-0.8","male","21","Australia","24514","25809","neither","neither","imgNWTK/KeepItSecret.jpg","imgNWTK/FindOutNow.jpg","info","eq","3.19","","54","2","1","0","null","imgNWTK/KeepItSecret.jpg","imgNWTK/FindOutNow.jpg","imgNWTK/FindOutNow.jpg","97","102","","",""
"4881","","","bandit-task-exp6","65","1643719","0.0-10.0-0.9","male","21","Australia","24514","25809","neither","neither","imgNWTK/KeepItSecret.jpg","imgNWTK/FindOutNow.jpg","info","eq","3.19","","55","2","2","109","null","imgNWTK/KeepItSecret.jpg","imgNWTK/FindOutNow.jpg","imgNWTK/FindOutNow.jpg","98","103","","",""
"8773","","","bandit-task-exp6","66","1674510","0.0-10.0-0.10","male","21","Australia","24514","25809","neither","neither","imgNWTK/KeepItSecret.jpg","imgNWTK/FindOutNow.jpg","info","eq","3.19","","56","1","2","0","null","imgNWTK/FindOutNow.jpg","imgNWTK/KeepItSecret.jpg","imgNWTK/KeepItSecret.jpg","99","105","","",""
"5884","","","bandit-task-exp6","67","1703026","0.0-10.0-0.11","male","21","Australia","24514","25809","neither","neither","imgNWTK/KeepItSecret.jpg","imgNWTK/FindOutNow.jpg","info","eq","3.19","","57","1","2","0","null","imgNWTK/KeepItSecret.jpg","imgNWTK/FindOutNow.jpg","imgNWTK/KeepItSecret.jpg","97","105","","",""
"8177","","","bandit-task-exp6","68","1734373","0.0-10.0-0.12","male","21","Australia","24514","25809","neither","neither","imgNWTK/KeepItSecret.jpg","imgNWTK/FindOutNow.jpg","info","eq","3.19","","58","1","2","0","null","imgNWTK/KeepItSecret.jpg","imgNWTK/FindOutNow.jpg","imgNWTK/KeepItSecret.jpg","98","108","","",""
"6039","","","bandit-task-exp6","69","1762091","0.0-10.0-0.13","male","21","Australia","24514","25809","neither","neither","imgNWTK/KeepItSecret.jpg","imgNWTK/FindOutNow.jpg","info","eq","3.19","","59","2","2","107","null","imgNWTK/FindOutNow.jpg","imgNWTK/KeepItSecret.jpg","imgNWTK/FindOutNow.jpg","99","104","","",""
"7798","","","bandit-task-exp6","70","1791834","0.0-10.0-0.14","male","21","Australia","24514","25809","neither","neither","imgNWTK/KeepItSecret.jpg","imgNWTK/FindOutNow.jpg","info","eq","3.19","","60","1","2","0","null","imgNWTK/FindOutNow.jpg","imgNWTK/KeepItSecret.jpg","imgNWTK/KeepItSecret.jpg","101","108","","",""
"2778","<p> Congratulations, you have finished the main part of the experiment. </p><p>Before you finish, we have a few short questions about the options and outcomes you saw in the task.</p>","0","html-button-response","71","1794613","0.0-11.0","male","21","Australia","24514","25809","neither","neither","imgNWTK/KeepItSecret.jpg","imgNWTK/FindOutNow.jpg","info","eq","3.19","","","","","","","","","","","","","",""
"18812","<p><b>Now, imagine that you clicked on the below button for another 10 trials (this includes <i> BOTH WIN and NO-WIN trials</i>).</p> <img src= 'imgNWTK/KeepItSecret.jpg'></img></br></br> <p><b>Please type the reward (number of points) you would expect to receive on every trial.</br> Click start to begin.</p>","0","html-button-response","72","1813426","0.0-12.0","male","21","Australia","24514","25809","neither","neither","imgNWTK/KeepItSecret.jpg","imgNWTK/FindOutNow.jpg","info","eq","3.19","","","","","","","","","","","","","",""
"23882.900000000373","","","survey-number","73","1837311","0.0-13.0-0.0","male","21","Australia","24514","25809","neither","neither","imgNWTK/KeepItSecret.jpg","imgNWTK/FindOutNow.jpg","info","eq","3.19","{""undefined"":""100""}","","","","","","","","","","","","imgNWTK/KeepItSecret.jpg",""
"3730.9000000003725","","","survey-number","74","1841044","0.0-13.0-0.1","male","21","Australia","24514","25809","neither","neither","imgNWTK/KeepItSecret.jpg","imgNWTK/FindOutNow.jpg","info","eq","3.19","{""undefined"":""107""}","","","","","","","","","","","","imgNWTK/KeepItSecret.jpg",""
"1560.5999999996275","","","survey-number","75","1842606","0.0-13.0-0.2","male","21","Australia","24514","25809","neither","neither","imgNWTK/KeepItSecret.jpg","imgNWTK/FindOutNow.jpg","info","eq","3.19","{""undefined"":""99""}","","","","","","","","","","","","imgNWTK/KeepItSecret.jpg",""
"1085.800000000745","","","survey-number","76","1843693","0.0-13.0-0.3","male","21","Australia","24514","25809","neither","neither","imgNWTK/KeepItSecret.jpg","imgNWTK/FindOutNow.jpg","info","eq","3.19","{""undefined"":""98""}","","","","","","","","","","","","imgNWTK/KeepItSecret.jpg",""
"2280.5","","","survey-number","77","1845975","0.0-13.0-0.4","male","21","Australia","24514","25809","neither","neither","imgNWTK/KeepItSecret.jpg","imgNWTK/FindOutNow.jpg","info","eq","3.19","{""undefined"":""103""}","","","","","","","","","","","","imgNWTK/KeepItSecret.jpg",""
"9830.699999999255","","","survey-number","78","1855807","0.0-13.0-0.5","male","21","Australia","24514","25809","neither","neither","imgNWTK/KeepItSecret.jpg","imgNWTK/FindOutNow.jpg","info","eq","3.19","{""undefined"":""0""}","","","","","","","","","","","","imgNWTK/KeepItSecret.jpg",""
"4450.0999999996275","","","survey-number","79","1860259","0.0-13.0-0.6","male","21","Australia","24514","25809","neither","neither","imgNWTK/KeepItSecret.jpg","imgNWTK/FindOutNow.jpg","info","eq","3.19","{""undefined"":""99""}","","","","","","","","","","","","imgNWTK/KeepItSecret.jpg",""
"603.4000000003725","","","survey-number","80","1860864","0.0-13.0-0.7","male","21","Australia","24514","25809","neither","neither","imgNWTK/KeepItSecret.jpg","imgNWTK/FindOutNow.jpg","info","eq","3.19","{""undefined"":""0""}","","","","","","","","","","","","imgNWTK/KeepItSecret.jpg",""
"827.5","","","survey-number","81","1861693","0.0-13.0-0.8","male","21","Australia","24514","25809","neither","neither","imgNWTK/KeepItSecret.jpg","imgNWTK/FindOutNow.jpg","info","eq","3.19","{""undefined"":""0""}","","","","","","","","","","","","imgNWTK/KeepItSecret.jpg",""
"4235.5999999996275","","","survey-number","82","1865930","0.0-13.0-0.9","male","21","Australia","24514","25809","neither","neither","imgNWTK/KeepItSecret.jpg","imgNWTK/FindOutNow.jpg","info","eq","3.19","{""undefined"":""0""}","","","","","","","","","","","","imgNWTK/KeepItSecret.jpg",""
"5896","<p><b>Imagine that you clicked on the below button for another 10 trials (this includes <i> both WIN and NO-WIN trials</i>).</p> <img src= 'imgNWTK/FindOutNow.jpg'></img></br></br> <p><b>Please type the reward (number of points) you would expect to receive on every trial.</br> Click start to begin.</p>","0","html-button-response","83","1871827","0.0-14.0","male","21","Australia","24514","25809","neither","neither","imgNWTK/KeepItSecret.jpg","imgNWTK/FindOutNow.jpg","info","eq","3.19","","","","","","","","","","","","","",""
"3674","","","survey-number","84","1875503","0.0-15.0-0.0","male","21","Australia","24514","25809","neither","neither","imgNWTK/KeepItSecret.jpg","imgNWTK/FindOutNow.jpg","info","eq","3.19","{""undefined"":""0""}","","","","","","","","","","","","imgNWTK/FindOutNow.jpg",""
"4093.4000000003725","","","survey-number","85","1879598","0.0-15.0-0.1","male","21","Australia","24514","25809","neither","neither","imgNWTK/KeepItSecret.jpg","imgNWTK/FindOutNow.jpg","info","eq","3.19","{""undefined"":""109""}","","","","","","","","","","","","imgNWTK/FindOutNow.jpg",""
"1803.5999999996275","","","survey-number","86","1881403","0.0-15.0-0.2","male","21","Australia","24514","25809","neither","neither","imgNWTK/KeepItSecret.jpg","imgNWTK/FindOutNow.jpg","info","eq","3.19","{""undefined"":""0""}","","","","","","","","","","","","imgNWTK/FindOutNow.jpg",""
"435.5","","","survey-number","87","1881840","0.0-15.0-0.3","male","21","Australia","24514","25809","neither","neither","imgNWTK/KeepItSecret.jpg","imgNWTK/FindOutNow.jpg","info","eq","3.19","{""undefined"":""0""}","","","","","","","","","","","","imgNWTK/FindOutNow.jpg",""
"3018.7000000011176","","","survey-number","88","1884860","0.0-15.0-0.4","male","21","Australia","24514","25809","neither","neither","imgNWTK/KeepItSecret.jpg","imgNWTK/FindOutNow.jpg","info","eq","3.19","{""undefined"":""104""}","","","","","","","","","","","","imgNWTK/FindOutNow.jpg",""
"2008.6000000014901","","","survey-number","89","1886870","0.0-15.0-0.5","male","21","Australia","24514","25809","neither","neither","imgNWTK/KeepItSecret.jpg","imgNWTK/FindOutNow.jpg","info","eq","3.19","{""undefined"":""101""}","","","","","","","","","","","","imgNWTK/FindOutNow.jpg",""
"931.8000000007451","","","survey-number","90","1887803","0.0-15.0-0.6","male","21","Australia","24514","25809","neither","neither","imgNWTK/KeepItSecret.jpg","imgNWTK/FindOutNow.jpg","info","eq","3.19","{""undefined"":""0""}","","","","","","","","","","","","imgNWTK/FindOutNow.jpg",""
"3734.5999999996275","","","survey-number","91","1891539","0.0-15.0-0.7","male","21","Australia","24514","25809","neither","neither","imgNWTK/KeepItSecret.jpg","imgNWTK/FindOutNow.jpg","info","eq","3.19","{""undefined"":""95""}","","","","","","","","","","","","imgNWTK/FindOutNow.jpg",""
"571.6000000014901","","","survey-number","92","1892112","0.0-15.0-0.8","male","21","Australia","24514","25809","neither","neither","imgNWTK/KeepItSecret.jpg","imgNWTK/FindOutNow.jpg","info","eq","3.19","{""undefined"":""0""}","","","","","","","","","","","","imgNWTK/FindOutNow.jpg",""
"2573.5999999996275","","","survey-number","93","1894687","0.0-15.0-0.9","male","21","Australia","24514","25809","neither","neither","imgNWTK/KeepItSecret.jpg","imgNWTK/FindOutNow.jpg","info","eq","3.19","{""undefined"":""101""}","","","","","","","","","","","","imgNWTK/FindOutNow.jpg",""
"32092.599999999627","","","survey-number","94","1926785","0.0-16.0","male","21","Australia","24514","25809","neither","neither","imgNWTK/KeepItSecret.jpg","imgNWTK/FindOutNow.jpg","info","eq","3.19","{""undefined"":""102""}","","","","","","","","","","","","","imgNWTK/KeepItSecret.jpg"
"11965.400000000373","","","survey-number","95","1938752","0.0-17.0","male","21","Australia","24514","25809","neither","neither","imgNWTK/KeepItSecret.jpg","imgNWTK/FindOutNow.jpg","info","eq","3.19","{""undefined"":""101""}","","","","","","","","","","","","","imgNWTK/FindOutNow.jpg"
"72554","<p style=""text-align:left;"">Great! We are almost at the end of the study... (Please do not close the browser window yet.)</p><p> Your final points balance is 3186, which equals to a bonus payment of $3.19. The payment can be collected from MAT721; please email amy.x.li@unsw.edu.au at least 24 hours prior to collection so that this is ready for you.</p><p style=""text-align:left;"">To view the debriefing form, please click <a href=""./imgNWTK/debrief_3205.pdf"" target=""_blank"">here</a> to download a copy.</p><p style=""text-align:left;"">Then, <b>please click the below button</b> to confirm that you have received your debrief and to complete the study. Upon clicking ""Finish!"", your SONA credit will be automatically assigned.</p>","0","html-button-response","96","2011307","0.0-18.0","male","21","Australia","24514","25809","neither","neither","imgNWTK/KeepItSecret.jpg","imgNWTK/FindOutNow.jpg","info","eq","3.19","","","","","","","","","","","","","",""
