"rt","stimulus","button_pressed","trial_type","trial_index","time_elapsed","internal_node_id","gender","age","language","PID","sona_id","subStim","optStim","stim1","stim2","infoCond","optimCond","bonus","responses","banditTrial","choice","cue","feedback","estimateData","leftOption","rightOption","choiceName","leftInput","rightInput","key_press","postQ","singleEst"
"5082","<p>Thank you for signing up to participate in SONA Study 465! <br> During this study, please focus on the experiment and refrain from activities such as:</p>- <b>Switching to other tabs on your browser (this will be monitored via the experiment)</br> - Using your mobile phone/cell phone</br> - Communicating with others</br></br></b><p>This way, you are helping to provide data that is useful for psychological research. We thank you for your cooperation!</p>","0","html-button-response","0","5084","0.0-0.0","male","19","australia","41198","24920","neither","neither","imgNWTK/triangle.png","imgNWTK/square.png","noninfo","eq","2.78","","","","","","","","","","","","","",""
"884","<p>Welcome to the experiment!</p><p>You will now read some instructions about the task. Press the 'Next' button to continue. </p>","0","html-button-response","1","5969","0.0-1.0","male","19","australia","41198","24920","neither","neither","imgNWTK/triangle.png","imgNWTK/square.png","noninfo","eq","2.78","","","","","","","","","","","","","",""
"9728","<p> On each trial throughout the experiment you will choose between two options, </br>a <b>Black Square </b> and <b> Black Triangle </b>, as seen below.</p><div><div style= 'float: left; width: 300px; margin: 10px 10px;'><img src= 'imgNWTK/square.png'></img></div><div style= 'float: right; width: 300px; margin: 10px 10px;'><img src= 'imgNWTK/triangle.png'></img></div></div><br/><br/><br/><br/><br/><br/><br/><br/><br/><br/><br/><p>Each option results in winning points or receiving 0 points.</br>There is a 50% chance of either winning or receiving 0 points.</p><p>You won't receive the outcome until after a <b> 20 second delay</b>.</p>","0","html-button-response","2","15698","0.0-2.0-0.0","male","19","australia","41198","24920","neither","neither","imgNWTK/triangle.png","imgNWTK/square.png","noninfo","eq","2.78","","","","","","","","","","","","","",""
"12209","<img src= 'imgNWTK/NonInfoDiagram.png'></img><p>As seen above, whether you choose the square or triangle, you will receive a coloured circle after the choice. </p> <p>This circle will be on screen for 20 seconds until you win points or receive 0 points.</p><p>The coloured circle depends on which option you chose. </br> In the above example, choosing a triangle leads to a green circle and choosing the square leads to a red circle.</p>Please note: the circles in your task will be different to the above colours.</br></br>","0","html-button-response","3","27909","0.0-2.0-1.0","male","19","australia","41198","24920","neither","neither","imgNWTK/triangle.png","imgNWTK/square.png","noninfo","eq","2.78","","","","","","","","","","","","","",""
"8741","<img src= 'cues/winTrials_noInfo.png' width = '1200'></img><p>To reiterate, 50% of the outcomes of each option will be WIN TRIALS, and the other 50% will be NO-WIN TRIALS.","0","html-button-response","4","36651","0.0-2.0-2.0","male","19","australia","41198","24920","neither","neither","imgNWTK/triangle.png","imgNWTK/square.png","noninfo","eq","2.78","","","","","","","","","","","","","",""
"2232","<p> There will be <b>four blocks</b> in the experiment.</br>You will be given a short 15 second break between each block.</p><p><b>The points and the options will remain the same between the blocks.</b></p>The blocks are there just to give you a small break.</br></br></br></br><p>The points you earn in the task are also equal to <b> actual money</b>.</br> <b>1000 points is equal to $1 AUD</b></p><p>This is the rate you will be paid at the experiment's end.","0","html-button-response","5","38884","0.0-2.0-3.0","male","19","australia","41198","24920","neither","neither","imgNWTK/triangle.png","imgNWTK/square.png","noninfo","eq","2.78","","","","","","","","","","","","","",""
"9042","","","survey-multi-choice","6","47934","0.0-2.0-4.0","male","19","australia","41198","24920","neither","neither","imgNWTK/triangle.png","imgNWTK/square.png","noninfo","eq","2.78","{""Q0"":""20 Seconds"",""Q1"":""True"",""Q2"":""Equally""}","","","","","","","","","","","","",""
"3436","<p> Well done, all your answers were correct! <br> The experiment is about to start now. <br/> Click start to continue, or email your researcher <b>(amy.x.li@unsw.edu.au)</b> if you have any questions before starting.","0","html-button-response","7","51376","0.0-3.0","male","19","australia","41198","24920","neither","neither","imgNWTK/triangle.png","imgNWTK/square.png","noninfo","eq","2.78","","","","","","","","","","","","","",""
"1222","","","bandit-task-exp6","8","75030","0.0-4.0-0.0","male","19","australia","41198","24920","neither","neither","imgNWTK/triangle.png","imgNWTK/square.png","noninfo","eq","2.78","","1","1","2","0","null","imgNWTK/triangle.png","imgNWTK/square.png","imgNWTK/triangle.png","NaN","NaN","","",""
"766","","","bandit-task-exp6","9","97844","0.0-4.0-0.1","male","19","australia","41198","24920","neither","neither","imgNWTK/triangle.png","imgNWTK/square.png","noninfo","eq","2.78","","2","2","1","0","null","imgNWTK/triangle.png","imgNWTK/square.png","imgNWTK/square.png","NaN","NaN","","",""
"588","","","bandit-task-exp6","10","120603","0.0-4.0-0.2","male","19","australia","41198","24920","neither","neither","imgNWTK/triangle.png","imgNWTK/square.png","noninfo","eq","2.78","","3","2","1","0","null","imgNWTK/square.png","imgNWTK/triangle.png","imgNWTK/square.png","NaN","NaN","","",""
"535","","","bandit-task-exp6","11","145728","0.0-4.0-0.3","male","19","australia","41198","24920","neither","neither","imgNWTK/triangle.png","imgNWTK/square.png","noninfo","eq","2.78","","4","1","2","0","null","imgNWTK/triangle.png","imgNWTK/square.png","imgNWTK/triangle.png","NaN","NaN","","",""
"607","","","bandit-task-exp6","12","168854","0.0-4.0-0.4","male","19","australia","41198","24920","neither","neither","imgNWTK/triangle.png","imgNWTK/square.png","noninfo","eq","2.78","","5","2","1","0","null","imgNWTK/square.png","imgNWTK/triangle.png","imgNWTK/square.png","NaN","NaN","","",""
"37500","","","bandit-task-exp6","13","229354","0.0-4.0-0.5","male","19","australia","41198","24920","neither","neither","imgNWTK/triangle.png","imgNWTK/square.png","noninfo","eq","2.78","","6","2","2","92","null","imgNWTK/triangle.png","imgNWTK/square.png","imgNWTK/square.png","NaN","NaN","","",""
"687","","","bandit-task-exp6","14","251939","0.0-4.0-0.6","male","19","australia","41198","24920","neither","neither","imgNWTK/triangle.png","imgNWTK/square.png","noninfo","eq","2.78","","7","1","1","108","null","imgNWTK/square.png","imgNWTK/triangle.png","imgNWTK/triangle.png","NaN","NaN","","",""
"1057","","","bandit-task-exp6","15","276598","0.0-4.0-0.7","male","19","australia","41198","24920","neither","neither","imgNWTK/triangle.png","imgNWTK/square.png","noninfo","eq","2.78","","8","2","1","0","null","imgNWTK/square.png","imgNWTK/triangle.png","imgNWTK/square.png","NaN","NaN","","",""
"2941","","","bandit-task-exp6","16","303627","0.0-4.0-0.8","male","19","australia","41198","24920","neither","neither","imgNWTK/triangle.png","imgNWTK/square.png","noninfo","eq","2.78","","9","1","1","106","null","imgNWTK/square.png","imgNWTK/triangle.png","imgNWTK/triangle.png","NaN","NaN","","",""
"601","","","bandit-task-exp6","17","327580","0.0-4.0-0.9","male","19","australia","41198","24920","neither","neither","imgNWTK/triangle.png","imgNWTK/square.png","noninfo","eq","2.78","","10","1","1","93","null","imgNWTK/square.png","imgNWTK/triangle.png","imgNWTK/triangle.png","NaN","NaN","","",""
"743","","","bandit-task-exp6","18","350897","0.0-4.0-0.10","male","19","australia","41198","24920","neither","neither","imgNWTK/triangle.png","imgNWTK/square.png","noninfo","eq","2.78","","11","2","1","0","null","imgNWTK/square.png","imgNWTK/triangle.png","imgNWTK/square.png","NaN","NaN","","",""
"855","","","bandit-task-exp6","19","374053","0.0-4.0-0.11","male","19","australia","41198","24920","neither","neither","imgNWTK/triangle.png","imgNWTK/square.png","noninfo","eq","2.78","","12","1","1","92","null","imgNWTK/triangle.png","imgNWTK/square.png","imgNWTK/triangle.png","NaN","NaN","","",""
"629","","","bandit-task-exp6","20","396722","0.0-4.0-0.12","male","19","australia","41198","24920","neither","neither","imgNWTK/triangle.png","imgNWTK/square.png","noninfo","eq","2.78","","13","1","1","102","null","imgNWTK/square.png","imgNWTK/triangle.png","imgNWTK/triangle.png","NaN","NaN","","",""
"1102","","","bandit-task-exp6","21","461457","0.0-4.0-0.13","male","19","australia","41198","24920","neither","neither","imgNWTK/triangle.png","imgNWTK/square.png","noninfo","eq","2.78","","14","2","1","0","null","imgNWTK/triangle.png","imgNWTK/square.png","imgNWTK/square.png","NaN","NaN","","",""
"515","","","bandit-task-exp6","22","517496","0.0-4.0-0.14","male","19","australia","41198","24920","neither","neither","imgNWTK/triangle.png","imgNWTK/square.png","noninfo","eq","2.78","","15","2","2","101","null","imgNWTK/square.png","imgNWTK/triangle.png","imgNWTK/square.png","NaN","NaN","","",""
"null","<p><b> Congratulations, you have finished this block. </b> </p><p>Please take a short break before moving onto the next block.</p><p>The next block will start after a 15 second break.</p><b>Remember, the point rewards are the same between blocks","","html-keyboard-response","23","532504","0.0-5.0","male","19","australia","41198","24920","neither","neither","imgNWTK/triangle.png","imgNWTK/square.png","noninfo","eq","2.78","","","","","","","","","","","","null","",""
"12610","","","bandit-task-exp6","24","582166","0.0-6.0-0.0","male","19","australia","41198","24920","neither","neither","imgNWTK/triangle.png","imgNWTK/square.png","noninfo","eq","2.78","","16","2","1","0","null","imgNWTK/triangle.png","imgNWTK/square.png","imgNWTK/square.png","NaN","NaN","","",""
"556","","","bandit-task-exp6","25","604551","0.0-6.0-0.1","male","19","australia","41198","24920","neither","neither","imgNWTK/triangle.png","imgNWTK/square.png","noninfo","eq","2.78","","17","2","1","0","null","imgNWTK/triangle.png","imgNWTK/square.png","imgNWTK/square.png","NaN","NaN","","",""
"463","","","bandit-task-exp6","26","628193","0.0-6.0-0.2","male","19","australia","41198","24920","neither","neither","imgNWTK/triangle.png","imgNWTK/square.png","noninfo","eq","2.78","","18","1","2","0","null","imgNWTK/triangle.png","imgNWTK/square.png","imgNWTK/triangle.png","NaN","NaN","","",""
"426","","","bandit-task-exp6","27","656035","0.0-6.0-0.3","male","19","australia","41198","24920","neither","neither","imgNWTK/triangle.png","imgNWTK/square.png","noninfo","eq","2.78","","19","2","1","0","null","imgNWTK/square.png","imgNWTK/triangle.png","imgNWTK/square.png","NaN","NaN","","",""
"642","","","bandit-task-exp6","28","680696","0.0-6.0-0.4","male","19","australia","41198","24920","neither","neither","imgNWTK/triangle.png","imgNWTK/square.png","noninfo","eq","2.78","","20","1","1","97","null","imgNWTK/square.png","imgNWTK/triangle.png","imgNWTK/triangle.png","NaN","NaN","","",""
"895","","","bandit-task-exp6","29","704094","0.0-6.0-0.5","male","19","australia","41198","24920","neither","neither","imgNWTK/triangle.png","imgNWTK/square.png","noninfo","eq","2.78","","21","2","1","0","null","imgNWTK/triangle.png","imgNWTK/square.png","imgNWTK/square.png","NaN","NaN","","",""
"823","","","bandit-task-exp6","30","758511","0.0-6.0-0.6","male","19","australia","41198","24920","neither","neither","imgNWTK/triangle.png","imgNWTK/square.png","noninfo","eq","2.78","","22","1","2","0","null","imgNWTK/square.png","imgNWTK/triangle.png","imgNWTK/triangle.png","NaN","NaN","","",""
"510","","","bandit-task-exp6","31","785224","0.0-6.0-0.7","male","19","australia","41198","24920","neither","neither","imgNWTK/triangle.png","imgNWTK/square.png","noninfo","eq","2.78","","23","2","2","107","null","imgNWTK/triangle.png","imgNWTK/square.png","imgNWTK/square.png","NaN","NaN","","",""
"639","","","bandit-task-exp6","32","882501","0.0-6.0-0.8","male","19","australia","41198","24920","neither","neither","imgNWTK/triangle.png","imgNWTK/square.png","noninfo","eq","2.78","","24","2","2","92","null","imgNWTK/triangle.png","imgNWTK/square.png","imgNWTK/square.png","NaN","NaN","","",""
"538","","","bandit-task-exp6","33","937529","0.0-6.0-0.9","male","19","australia","41198","24920","neither","neither","imgNWTK/triangle.png","imgNWTK/square.png","noninfo","eq","2.78","","25","2","1","0","null","imgNWTK/triangle.png","imgNWTK/square.png","imgNWTK/square.png","NaN","NaN","","",""
"555","","","bandit-task-exp6","34","960843","0.0-6.0-0.10","male","19","australia","41198","24920","neither","neither","imgNWTK/triangle.png","imgNWTK/square.png","noninfo","eq","2.78","","26","2","1","0","null","imgNWTK/triangle.png","imgNWTK/square.png","imgNWTK/square.png","NaN","NaN","","",""
"511","","","bandit-task-exp6","35","984350","0.0-6.0-0.11","male","19","australia","41198","24920","neither","neither","imgNWTK/triangle.png","imgNWTK/square.png","noninfo","eq","2.78","","27","2","2","101","null","imgNWTK/square.png","imgNWTK/triangle.png","imgNWTK/square.png","NaN","NaN","","",""
"679","","","bandit-task-exp6","36","1006684","0.0-6.0-0.12","male","19","australia","41198","24920","neither","neither","imgNWTK/triangle.png","imgNWTK/square.png","noninfo","eq","2.78","","28","2","1","0","null","imgNWTK/square.png","imgNWTK/triangle.png","imgNWTK/square.png","NaN","NaN","","",""
"533","","","bandit-task-exp6","37","1029174","0.0-6.0-0.13","male","19","australia","41198","24920","neither","neither","imgNWTK/triangle.png","imgNWTK/square.png","noninfo","eq","2.78","","29","2","1","0","null","imgNWTK/square.png","imgNWTK/triangle.png","imgNWTK/square.png","NaN","NaN","","",""
"557","","","bandit-task-exp6","38","1053245","0.0-6.0-0.14","male","19","australia","41198","24920","neither","neither","imgNWTK/triangle.png","imgNWTK/square.png","noninfo","eq","2.78","","30","1","2","0","null","imgNWTK/triangle.png","imgNWTK/square.png","imgNWTK/triangle.png","NaN","NaN","","",""
"null","<p><b> Congratulations, you have finished this block. </b> </p><p>Please take a short break before moving onto the next block.</p><p>The next block will start after a 15 second break.</p><b>Remember, the point rewards are the same between blocks","","html-keyboard-response","39","1068251","0.0-7.0","male","19","australia","41198","24920","neither","neither","imgNWTK/triangle.png","imgNWTK/square.png","noninfo","eq","2.78","","","","","","","","","","","","null","",""
"2443","","","bandit-task-exp6","40","1094100","0.0-8.0-0.0","male","19","australia","41198","24920","neither","neither","imgNWTK/triangle.png","imgNWTK/square.png","noninfo","eq","2.78","","31","2","2","100","null","imgNWTK/triangle.png","imgNWTK/square.png","imgNWTK/square.png","NaN","NaN","","",""
"566","","","bandit-task-exp6","41","1118300","0.0-8.0-0.1","male","19","australia","41198","24920","neither","neither","imgNWTK/triangle.png","imgNWTK/square.png","noninfo","eq","2.78","","32","2","2","98","null","imgNWTK/triangle.png","imgNWTK/square.png","imgNWTK/square.png","NaN","NaN","","",""
"486","","","bandit-task-exp6","42","1159171","0.0-8.0-0.2","male","19","australia","41198","24920","neither","neither","imgNWTK/triangle.png","imgNWTK/square.png","noninfo","eq","2.78","","33","1","2","0","null","imgNWTK/triangle.png","imgNWTK/square.png","imgNWTK/triangle.png","NaN","NaN","","",""
"575","","","bandit-task-exp6","43","1189950","0.0-8.0-0.3","male","19","australia","41198","24920","neither","neither","imgNWTK/triangle.png","imgNWTK/square.png","noninfo","eq","2.78","","34","2","1","0","null","imgNWTK/triangle.png","imgNWTK/square.png","imgNWTK/square.png","NaN","NaN","","",""
"470","","","bandit-task-exp6","44","1213699","0.0-8.0-0.4","male","19","australia","41198","24920","neither","neither","imgNWTK/triangle.png","imgNWTK/square.png","noninfo","eq","2.78","","35","2","1","0","null","imgNWTK/triangle.png","imgNWTK/square.png","imgNWTK/square.png","NaN","NaN","","",""
"498","","","bandit-task-exp6","45","1264031","0.0-8.0-0.5","male","19","australia","41198","24920","neither","neither","imgNWTK/triangle.png","imgNWTK/square.png","noninfo","eq","2.78","","36","2","2","93","null","imgNWTK/triangle.png","imgNWTK/square.png","imgNWTK/square.png","NaN","NaN","","",""
"702","","","bandit-task-exp6","46","1287860","0.0-8.0-0.6","male","19","australia","41198","24920","neither","neither","imgNWTK/triangle.png","imgNWTK/square.png","noninfo","eq","2.78","","37","1","1","90","null","imgNWTK/square.png","imgNWTK/triangle.png","imgNWTK/triangle.png","NaN","NaN","","",""
"462","","","bandit-task-exp6","47","1311945","0.0-8.0-0.7","male","19","australia","41198","24920","neither","neither","imgNWTK/triangle.png","imgNWTK/square.png","noninfo","eq","2.78","","38","2","2","97","null","imgNWTK/triangle.png","imgNWTK/square.png","imgNWTK/square.png","NaN","NaN","","",""
"450","","","bandit-task-exp6","48","1347929","0.0-8.0-0.8","male","19","australia","41198","24920","neither","neither","imgNWTK/triangle.png","imgNWTK/square.png","noninfo","eq","2.78","","39","2","2","103","null","imgNWTK/triangle.png","imgNWTK/square.png","imgNWTK/square.png","NaN","NaN","","",""
"455","","","bandit-task-exp6","49","1373986","0.0-8.0-0.9","male","19","australia","41198","24920","neither","neither","imgNWTK/triangle.png","imgNWTK/square.png","noninfo","eq","2.78","","40","2","2","105","null","imgNWTK/square.png","imgNWTK/triangle.png","imgNWTK/square.png","NaN","NaN","","",""
"710","","","bandit-task-exp6","50","1507421","0.0-8.0-0.10","male","19","australia","41198","24920","neither","neither","imgNWTK/triangle.png","imgNWTK/square.png","noninfo","eq","2.78","","41","2","2","105","null","imgNWTK/triangle.png","imgNWTK/square.png","imgNWTK/square.png","NaN","NaN","","",""
"551","","","bandit-task-exp6","51","1538139","0.0-8.0-0.11","male","19","australia","41198","24920","neither","neither","imgNWTK/triangle.png","imgNWTK/square.png","noninfo","eq","2.78","","42","1","1","92","null","imgNWTK/square.png","imgNWTK/triangle.png","imgNWTK/triangle.png","NaN","NaN","","",""
"805","","","bandit-task-exp6","52","1563260","0.0-8.0-0.12","male","19","australia","41198","24920","neither","neither","imgNWTK/triangle.png","imgNWTK/square.png","noninfo","eq","2.78","","43","2","2","95","null","imgNWTK/triangle.png","imgNWTK/square.png","imgNWTK/square.png","NaN","NaN","","",""
"614","","","bandit-task-exp6","53","1586202","0.0-8.0-0.13","male","19","australia","41198","24920","neither","neither","imgNWTK/triangle.png","imgNWTK/square.png","noninfo","eq","2.78","","44","2","1","0","null","imgNWTK/triangle.png","imgNWTK/square.png","imgNWTK/square.png","NaN","NaN","","",""
"562","","","bandit-task-exp6","54","1636489","0.0-8.0-0.14","male","19","australia","41198","24920","neither","neither","imgNWTK/triangle.png","imgNWTK/square.png","noninfo","eq","2.78","","45","2","2","98","null","imgNWTK/triangle.png","imgNWTK/square.png","imgNWTK/square.png","NaN","NaN","","",""
"null","<p><b> Congratulations, you have finished this block. </b> </p><p>Please take a short break before moving onto the next block.</p><p>The next block will start after a 15 second break.</p><b>Remember, the point rewards are the same between blocks","","html-keyboard-response","55","1651778","0.0-9.0","male","19","australia","41198","24920","neither","neither","imgNWTK/triangle.png","imgNWTK/square.png","noninfo","eq","2.78","","","","","","","","","","","","null","",""
"59086","","","bandit-task-exp6","56","1734011","0.0-10.0-0.0","male","19","australia","41198","24920","neither","neither","imgNWTK/triangle.png","imgNWTK/square.png","noninfo","eq","2.78","","46","1","2","0","null","imgNWTK/square.png","imgNWTK/triangle.png","imgNWTK/triangle.png","100","100","","",""
"6867","","","bandit-task-exp6","57","1763949","0.0-10.0-0.1","male","19","australia","41198","24920","neither","neither","imgNWTK/triangle.png","imgNWTK/square.png","noninfo","eq","2.78","","47","2","1","0","null","imgNWTK/square.png","imgNWTK/triangle.png","imgNWTK/square.png","200","200","","",""
"5865","","","bandit-task-exp6","58","1822995","0.0-10.0-0.2","male","19","australia","41198","24920","neither","neither","imgNWTK/triangle.png","imgNWTK/square.png","noninfo","eq","2.78","","48","2","2","102","null","imgNWTK/triangle.png","imgNWTK/square.png","imgNWTK/square.png","250","250","","",""
"5120","","","bandit-task-exp6","59","1850271","0.0-10.0-0.3","male","19","australia","41198","24920","neither","neither","imgNWTK/triangle.png","imgNWTK/square.png","noninfo","eq","2.78","","49","2","1","0","null","imgNWTK/triangle.png","imgNWTK/square.png","imgNWTK/square.png","200","200","","",""
"4368","","","bandit-task-exp6","60","1932276","0.0-10.0-0.4","male","19","australia","41198","24920","neither","neither","imgNWTK/triangle.png","imgNWTK/square.png","noninfo","eq","2.78","","50","2","1","0","null","imgNWTK/triangle.png","imgNWTK/square.png","imgNWTK/square.png","300","300","","",""
"4467","","","bandit-task-exp6","61","2004445","0.0-10.0-0.5","male","19","australia","41198","24920","neither","neither","imgNWTK/triangle.png","imgNWTK/square.png","noninfo","eq","2.78","","51","1","2","0","null","imgNWTK/square.png","imgNWTK/triangle.png","imgNWTK/triangle.png","200","200","","",""
"5305","","","bandit-task-exp6","62","2033086","0.0-10.0-0.6","male","19","australia","41198","24920","neither","neither","imgNWTK/triangle.png","imgNWTK/square.png","noninfo","eq","2.78","","52","1","2","0","null","imgNWTK/square.png","imgNWTK/triangle.png","imgNWTK/triangle.png","200","250","","",""
"4927","","","bandit-task-exp6","63","2064050","0.0-10.0-0.7","male","19","australia","41198","24920","neither","neither","imgNWTK/triangle.png","imgNWTK/square.png","noninfo","eq","2.78","","53","2","2","101","null","imgNWTK/square.png","imgNWTK/triangle.png","imgNWTK/square.png","200","200","","",""
"5453","","","bandit-task-exp6","64","2165720","0.0-10.0-0.8","male","19","australia","41198","24920","neither","neither","imgNWTK/triangle.png","imgNWTK/square.png","noninfo","eq","2.78","","54","2","1","0","null","imgNWTK/triangle.png","imgNWTK/square.png","imgNWTK/square.png","350","350","","",""
"4100","","","bandit-task-exp6","65","2192597","0.0-10.0-0.9","male","19","australia","41198","24920","neither","neither","imgNWTK/triangle.png","imgNWTK/square.png","noninfo","eq","2.78","","55","2","1","0","null","imgNWTK/square.png","imgNWTK/triangle.png","imgNWTK/square.png","200","200","","",""
"3995","","","bandit-task-exp6","66","2219522","0.0-10.0-0.10","male","19","australia","41198","24920","neither","neither","imgNWTK/triangle.png","imgNWTK/square.png","noninfo","eq","2.78","","56","2","2","108","null","imgNWTK/square.png","imgNWTK/triangle.png","imgNWTK/square.png","200","200","","",""
"4268","","","bandit-task-exp6","67","2247172","0.0-10.0-0.11","male","19","australia","41198","24920","neither","neither","imgNWTK/triangle.png","imgNWTK/square.png","noninfo","eq","2.78","","57","1","1","99","null","imgNWTK/square.png","imgNWTK/triangle.png","imgNWTK/triangle.png","300","300","","",""
"4528","","","bandit-task-exp6","68","2274559","0.0-10.0-0.12","male","19","australia","41198","24920","neither","neither","imgNWTK/triangle.png","imgNWTK/square.png","noninfo","eq","2.78","","58","1","2","0","null","imgNWTK/square.png","imgNWTK/triangle.png","imgNWTK/triangle.png","230","230","","",""
"5345","","","bandit-task-exp6","69","2310051","0.0-10.0-0.13","male","19","australia","41198","24920","neither","neither","imgNWTK/triangle.png","imgNWTK/square.png","noninfo","eq","2.78","","59","1","1","109","null","imgNWTK/square.png","imgNWTK/triangle.png","imgNWTK/triangle.png","300","300","","",""
"4892","","","bandit-task-exp6","70","2337035","0.0-10.0-0.14","male","19","australia","41198","24920","neither","neither","imgNWTK/triangle.png","imgNWTK/square.png","noninfo","eq","2.78","","60","2","2","98","null","imgNWTK/triangle.png","imgNWTK/square.png","imgNWTK/square.png","150","150","","",""
"2407","<p> Congratulations, you have finished the main part of the experiment. </p><p>Before you finish, we have a few short questions about the options and outcomes you saw in the task.</p>","0","html-button-response","71","2339444","0.0-11.0","male","19","australia","41198","24920","neither","neither","imgNWTK/triangle.png","imgNWTK/square.png","noninfo","eq","2.78","","","","","","","","","","","","","",""
"5006","<p><b>Now, imagine that you clicked on the below button for another 10 trials (this includes <i> BOTH WIN and NO-WIN trials</i>).</p> <img src= 'imgNWTK/square.png'></img></br></br> <p><b>Please type the reward (number of points) you would expect to receive on every trial.</br> Click start to begin.</p>","0","html-button-response","72","2344451","0.0-12.0","male","19","australia","41198","24920","neither","neither","imgNWTK/triangle.png","imgNWTK/square.png","noninfo","eq","2.78","","","","","","","","","","","","","",""
"2442.2000000011176","","","survey-number","73","2346898","0.0-13.0-0.0","male","19","australia","41198","24920","neither","neither","imgNWTK/triangle.png","imgNWTK/square.png","noninfo","eq","2.78","{""undefined"":""100""}","","","","","","","","","","","","imgNWTK/square.png",""
"4464.299999998882","","","survey-number","74","2351366","0.0-13.0-0.1","male","19","australia","41198","24920","neither","neither","imgNWTK/triangle.png","imgNWTK/square.png","noninfo","eq","2.78","{""undefined"":""108""}","","","","","","","","","","","","imgNWTK/square.png",""
"1803.5999999996275","","","survey-number","75","2353174","0.0-13.0-0.2","male","19","australia","41198","24920","neither","neither","imgNWTK/triangle.png","imgNWTK/square.png","noninfo","eq","2.78","{""undefined"":""92""}","","","","","","","","","","","","imgNWTK/square.png",""
"1097.4000000003725","","","survey-number","76","2354275","0.0-13.0-0.3","male","19","australia","41198","24920","neither","neither","imgNWTK/triangle.png","imgNWTK/square.png","noninfo","eq","2.78","{""undefined"":""94""}","","","","","","","","","","","","imgNWTK/square.png",""
"842.7999999988824","","","survey-number","77","2355121","0.0-13.0-0.4","male","19","australia","41198","24920","neither","neither","imgNWTK/triangle.png","imgNWTK/square.png","noninfo","eq","2.78","{""undefined"":""95""}","","","","","","","","","","","","imgNWTK/square.png",""
"899.2000000011176","","","survey-number","78","2356024","0.0-13.0-0.5","male","19","australia","41198","24920","neither","neither","imgNWTK/triangle.png","imgNWTK/square.png","noninfo","eq","2.78","{""undefined"":""96""}","","","","","","","","","","","","imgNWTK/square.png",""
"1120.199999999255","","","survey-number","79","2357148","0.0-13.0-0.6","male","19","australia","41198","24920","neither","neither","imgNWTK/triangle.png","imgNWTK/square.png","noninfo","eq","2.78","{""undefined"":""98""}","","","","","","","","","","","","imgNWTK/square.png",""
"954.7000000011176","","","survey-number","80","2358106","0.0-13.0-0.7","male","19","australia","41198","24920","neither","neither","imgNWTK/triangle.png","imgNWTK/square.png","noninfo","eq","2.78","{""undefined"":""100""}","","","","","","","","","","","","imgNWTK/square.png",""
"1129.5","","","survey-number","81","2359241","0.0-13.0-0.8","male","19","australia","41198","24920","neither","neither","imgNWTK/triangle.png","imgNWTK/square.png","noninfo","eq","2.78","{""undefined"":""100""}","","","","","","","","","","","","imgNWTK/square.png",""
"1112","","","survey-number","82","2360357","0.0-13.0-0.9","male","19","australia","41198","24920","neither","neither","imgNWTK/triangle.png","imgNWTK/square.png","noninfo","eq","2.78","{""undefined"":""100""}","","","","","","","","","","","","imgNWTK/square.png",""
"1271","<p><b>Imagine that you clicked on the below button for another 10 trials (this includes <i> both WIN and NO-WIN trials</i>).</p> <img src= 'imgNWTK/triangle.png'></img></br></br> <p><b>Please type the reward (number of points) you would expect to receive on every trial.</br> Click start to begin.</p>","0","html-button-response","83","2361629","0.0-14.0","male","19","australia","41198","24920","neither","neither","imgNWTK/triangle.png","imgNWTK/square.png","noninfo","eq","2.78","","","","","","","","","","","","","",""
"2422.699999999255","","","survey-number","84","2364055","0.0-15.0-0.0","male","19","australia","41198","24920","neither","neither","imgNWTK/triangle.png","imgNWTK/square.png","noninfo","eq","2.78","{""undefined"":""200""}","","","","","","","","","","","","imgNWTK/triangle.png",""
"1049.699999999255","","","survey-number","85","2365108","0.0-15.0-0.1","male","19","australia","41198","24920","neither","neither","imgNWTK/triangle.png","imgNWTK/square.png","noninfo","eq","2.78","{""undefined"":""200""}","","","","","","","","","","","","imgNWTK/triangle.png",""
"1453.5","","","survey-number","86","2366565","0.0-15.0-0.2","male","19","australia","41198","24920","neither","neither","imgNWTK/triangle.png","imgNWTK/square.png","noninfo","eq","2.78","{""undefined"":""108""}","","","","","","","","","","","","imgNWTK/triangle.png",""
"911","","","survey-number","87","2367479","0.0-15.0-0.3","male","19","australia","41198","24920","neither","neither","imgNWTK/triangle.png","imgNWTK/square.png","noninfo","eq","2.78","{""undefined"":""102""}","","","","","","","","","","","","imgNWTK/triangle.png",""
"1443.4000000003725","","","survey-number","88","2368926","0.0-15.0-0.4","male","19","australia","41198","24920","neither","neither","imgNWTK/triangle.png","imgNWTK/square.png","noninfo","eq","2.78","{""undefined"":""98""}","","","","","","","","","","","","imgNWTK/triangle.png",""
"1873.699999999255","","","survey-number","89","2370803","0.0-15.0-0.5","male","19","australia","41198","24920","neither","neither","imgNWTK/triangle.png","imgNWTK/square.png","noninfo","eq","2.78","{""undefined"":""98""}","","","","","","","","","","","","imgNWTK/triangle.png",""
"1110.7000000011176","","","survey-number","90","2371918","0.0-15.0-0.6","male","19","australia","41198","24920","neither","neither","imgNWTK/triangle.png","imgNWTK/square.png","noninfo","eq","2.78","{""undefined"":""90""}","","","","","","","","","","","","imgNWTK/triangle.png",""
"1918.3999999985099","","","survey-number","91","2373840","0.0-15.0-0.7","male","19","australia","41198","24920","neither","neither","imgNWTK/triangle.png","imgNWTK/square.png","noninfo","eq","2.78","{""undefined"":""92""}","","","","","","","","","","","","imgNWTK/triangle.png",""
"1432.3999999985099","","","survey-number","92","2375277","0.0-15.0-0.8","male","19","australia","41198","24920","neither","neither","imgNWTK/triangle.png","imgNWTK/square.png","noninfo","eq","2.78","{""undefined"":""94""}","","","","","","","","","","","","imgNWTK/triangle.png",""
"1145","","","survey-number","93","2376426","0.0-15.0-0.9","male","19","australia","41198","24920","neither","neither","imgNWTK/triangle.png","imgNWTK/square.png","noninfo","eq","2.78","{""undefined"":""96""}","","","","","","","","","","","","imgNWTK/triangle.png",""
"3365.699999999255","","","survey-number","94","2379799","0.0-16.0","male","19","australia","41198","24920","neither","neither","imgNWTK/triangle.png","imgNWTK/square.png","noninfo","eq","2.78","{""undefined"":""50""}","","","","","","","","","","","","","imgNWTK/triangle.png"
"1242.699999999255","","","survey-number","95","2381046","0.0-17.0","male","19","australia","41198","24920","neither","neither","imgNWTK/triangle.png","imgNWTK/square.png","noninfo","eq","2.78","{""undefined"":""50""}","","","","","","","","","","","","","imgNWTK/square.png"
"38402","<p style=""text-align:left;"">Great! We are almost at the end of the study... (Please do not close the browser window yet.)</p><p> Your final points balance is 2784, which equals to a bonus payment of $2.78. Please collect your payment from Mathews Building Room 721 (Wed-Fri 9am-5pm); please email jaimie.lee@unsw.edu.au at least 24 hours prior to collection so that this is ready for you.</p><p style=""text-align:left;"">To view the debriefing form, please click <a href=""./imgNWTK/debrief_3205.pdf"" target=""_blank"">here</a> to download a copy.</p><p style=""text-align:left;"">Then, <b>please click the below button</b> to confirm that you have received your debrief and to complete the study. Upon clicking ""Finish!"", your SONA credit will be automatically assigned.</p>","0","html-button-response","96","2419450","0.0-18.0","male","19","australia","41198","24920","neither","neither","imgNWTK/triangle.png","imgNWTK/square.png","noninfo","eq","2.78","","","","","","","","","","","","","",""
