"rt","stimulus","button_pressed","trial_type","trial_index","time_elapsed","internal_node_id","gender","age","language","PID","sona_id","subStim","optStim","stim1","stim2","infoCond","optimCond","bonus","responses","banditTrial","choice","cue","feedback","estimateData","leftOption","rightOption","choiceName","leftInput","rightInput","key_press","postQ","singleEst"
"17611","<p>Thank you for signing up to participate in SONA Study 465! <br> During this study, please focus on the experiment and refrain from activities such as:</p>- <b>Switching to other tabs on your browser (this will be monitored via the experiment)</br> - Using your mobile phone/cell phone</br> - Communicating with others</br></br></b><p>This way, you are helping to provide data that is useful for psychological research. We thank you for your cooperation!</p>","0","html-button-response","0","17616","0.0-0.0","female","25","Australia","50849","25030","imgNWTK/triangle.png","imgNWTK/square.png","imgNWTK/triangle.png","imgNWTK/square.png","noninfo","optim","2.96","","","","","","","","","","","","","",""
"1295","<p>Welcome to the experiment!</p><p>You will now read some instructions about the task. Press the 'Next' button to continue. </p>","0","html-button-response","1","18913","0.0-1.0","female","25","Australia","50849","25030","imgNWTK/triangle.png","imgNWTK/square.png","imgNWTK/triangle.png","imgNWTK/square.png","noninfo","optim","2.96","","","","","","","","","","","","","",""
"8996","<p> On each trial throughout the experiment you will choose between two options, </br>a <b>Black Square </b> and <b> Black Triangle </b>, as seen below.</p><div><div style= 'float: left; width: 300px; margin: 10px 10px;'><img src= 'imgNWTK/square.png'></img></div><div style= 'float: right; width: 300px; margin: 10px 10px;'><img src= 'imgNWTK/triangle.png'></img></div></div><br/><br/><br/><br/><br/><br/><br/><br/><br/><br/><br/><p>Each option results in winning points or receiving 0 points.</br>There is a 50% chance of either winning or receiving 0 points.</p><p>You won't receive the outcome until after a <b> 20 second delay</b>.</p>","0","html-button-response","2","27913","0.0-2.0-0.0","female","25","Australia","50849","25030","imgNWTK/triangle.png","imgNWTK/square.png","imgNWTK/triangle.png","imgNWTK/square.png","noninfo","optim","2.96","","","","","","","","","","","","","",""
"19364","<img src= 'imgNWTK/NonInfoDiagram.png'></img><p>As seen above, whether you choose the square or triangle, you will receive a coloured circle after the choice. </p> <p>This circle will be on screen for 20 seconds until you win points or receive 0 points.</p><p>The coloured circle depends on which option you chose. </br> In the above example, choosing a triangle leads to a green circle and choosing the square leads to a red circle.</p>Please note: the circles in your task will be different to the above colours.</br></br>","0","html-button-response","3","47280","0.0-2.0-1.0","female","25","Australia","50849","25030","imgNWTK/triangle.png","imgNWTK/square.png","imgNWTK/triangle.png","imgNWTK/square.png","noninfo","optim","2.96","","","","","","","","","","","","","",""
"6881","<img src= 'cues/winTrials_noInfo.png' width = '1200'></img><p>To reiterate, 50% of the outcomes of each option will be WIN TRIALS, and the other 50% will be NO-WIN TRIALS.","0","html-button-response","4","54163","0.0-2.0-2.0","female","25","Australia","50849","25030","imgNWTK/triangle.png","imgNWTK/square.png","imgNWTK/triangle.png","imgNWTK/square.png","noninfo","optim","2.96","","","","","","","","","","","","","",""
"946","<p> There will be <b>four blocks</b> in the experiment.</br>You will be given a short 15 second break between each block.</p><p><b>The points and the options will remain the same between the blocks.</b></p>The blocks are there just to give you a small break.</br></br></br></br><p>The points you earn in the task are also equal to <b> actual money</b>.</br> <b>1000 points is equal to $1 AUD</b></p><p>This is the rate you will be paid at the experiment's end.","0","html-button-response","5","55113","0.0-2.0-3.0","female","25","Australia","50849","25030","imgNWTK/triangle.png","imgNWTK/square.png","imgNWTK/triangle.png","imgNWTK/square.png","noninfo","optim","2.96","","","","","","","","","","","","","",""
"5778","","","survey-multi-choice","6","60898","0.0-2.0-4.0","female","25","Australia","50849","25030","imgNWTK/triangle.png","imgNWTK/square.png","imgNWTK/triangle.png","imgNWTK/square.png","noninfo","optim","2.96","{""Q0"":""20 Seconds"",""Q1"":""True"",""Q2"":""Equally""}","","","","","","","","","","","","",""
"1079","<p> Well done, all your answers were correct! <br> The experiment is about to start now. <br/> Click start to continue, or email your researcher <b>(amy.x.li@unsw.edu.au)</b> if you have any questions before starting.","0","html-button-response","7","61980","0.0-3.0","female","25","Australia","50849","25030","imgNWTK/triangle.png","imgNWTK/square.png","imgNWTK/triangle.png","imgNWTK/square.png","noninfo","optim","2.96","","","","","","","","","","","","","",""
"2294","","","bandit-task-exp6","8","86513","0.0-4.0-0.0","female","25","Australia","50849","25030","imgNWTK/triangle.png","imgNWTK/square.png","imgNWTK/triangle.png","imgNWTK/square.png","noninfo","optim","2.96","","1","2","1","0","null","imgNWTK/square.png","imgNWTK/triangle.png","imgNWTK/square.png","NaN","NaN","","",""
"1478","","","bandit-task-exp6","9","109997","0.0-4.0-0.1","female","25","Australia","50849","25030","imgNWTK/triangle.png","imgNWTK/square.png","imgNWTK/triangle.png","imgNWTK/square.png","noninfo","optim","2.96","","2","1","2","0","null","imgNWTK/square.png","imgNWTK/triangle.png","imgNWTK/triangle.png","NaN","NaN","","",""
"3160","","","bandit-task-exp6","10","135880","0.0-4.0-0.2","female","25","Australia","50849","25030","imgNWTK/triangle.png","imgNWTK/square.png","imgNWTK/triangle.png","imgNWTK/square.png","noninfo","optim","2.96","","3","2","2","116","null","imgNWTK/square.png","imgNWTK/triangle.png","imgNWTK/square.png","NaN","NaN","","",""
"1661","","","bandit-task-exp6","11","159746","0.0-4.0-0.3","female","25","Australia","50849","25030","imgNWTK/triangle.png","imgNWTK/square.png","imgNWTK/triangle.png","imgNWTK/square.png","noninfo","optim","2.96","","4","2","2","128","null","imgNWTK/triangle.png","imgNWTK/square.png","imgNWTK/square.png","NaN","NaN","","",""
"1328","","","bandit-task-exp6","12","187397","0.0-4.0-0.4","female","25","Australia","50849","25030","imgNWTK/triangle.png","imgNWTK/square.png","imgNWTK/triangle.png","imgNWTK/square.png","noninfo","optim","2.96","","5","1","2","0","null","imgNWTK/square.png","imgNWTK/triangle.png","imgNWTK/triangle.png","NaN","NaN","","",""
"1460","","","bandit-task-exp6","13","211196","0.0-4.0-0.5","female","25","Australia","50849","25030","imgNWTK/triangle.png","imgNWTK/square.png","imgNWTK/triangle.png","imgNWTK/square.png","noninfo","optim","2.96","","6","1","1","76","null","imgNWTK/square.png","imgNWTK/triangle.png","imgNWTK/triangle.png","NaN","NaN","","",""
"3289","","","bandit-task-exp6","14","243193","0.0-4.0-0.6","female","25","Australia","50849","25030","imgNWTK/triangle.png","imgNWTK/square.png","imgNWTK/triangle.png","imgNWTK/square.png","noninfo","optim","2.96","","7","1","1","76","null","imgNWTK/triangle.png","imgNWTK/square.png","imgNWTK/triangle.png","NaN","NaN","","",""
"1963","","","bandit-task-exp6","15","267596","0.0-4.0-0.7","female","25","Australia","50849","25030","imgNWTK/triangle.png","imgNWTK/square.png","imgNWTK/triangle.png","imgNWTK/square.png","noninfo","optim","2.96","","8","2","2","121","null","imgNWTK/square.png","imgNWTK/triangle.png","imgNWTK/square.png","NaN","NaN","","",""
"3946","","","bandit-task-exp6","16","294617","0.0-4.0-0.8","female","25","Australia","50849","25030","imgNWTK/triangle.png","imgNWTK/square.png","imgNWTK/triangle.png","imgNWTK/square.png","noninfo","optim","2.96","","9","2","2","126","null","imgNWTK/triangle.png","imgNWTK/square.png","imgNWTK/square.png","NaN","NaN","","",""
"10944","","","bandit-task-exp6","17","327751","0.0-4.0-0.9","female","25","Australia","50849","25030","imgNWTK/triangle.png","imgNWTK/square.png","imgNWTK/triangle.png","imgNWTK/square.png","noninfo","optim","2.96","","10","2","1","0","null","imgNWTK/square.png","imgNWTK/triangle.png","imgNWTK/square.png","NaN","NaN","","",""
"643","","","bandit-task-exp6","18","351052","0.0-4.0-0.10","female","25","Australia","50849","25030","imgNWTK/triangle.png","imgNWTK/square.png","imgNWTK/triangle.png","imgNWTK/square.png","noninfo","optim","2.96","","11","1","1","74","null","imgNWTK/square.png","imgNWTK/triangle.png","imgNWTK/triangle.png","NaN","NaN","","",""
"1193","","","bandit-task-exp6","19","374237","0.0-4.0-0.11","female","25","Australia","50849","25030","imgNWTK/triangle.png","imgNWTK/square.png","imgNWTK/triangle.png","imgNWTK/square.png","noninfo","optim","2.96","","12","2","2","124","null","imgNWTK/triangle.png","imgNWTK/square.png","imgNWTK/square.png","NaN","NaN","","",""
"1025","","","bandit-task-exp6","20","397785","0.0-4.0-0.12","female","25","Australia","50849","25030","imgNWTK/triangle.png","imgNWTK/square.png","imgNWTK/triangle.png","imgNWTK/square.png","noninfo","optim","2.96","","13","1","2","0","null","imgNWTK/square.png","imgNWTK/triangle.png","imgNWTK/triangle.png","NaN","NaN","","",""
"979","","","bandit-task-exp6","21","420336","0.0-4.0-0.13","female","25","Australia","50849","25030","imgNWTK/triangle.png","imgNWTK/square.png","imgNWTK/triangle.png","imgNWTK/square.png","noninfo","optim","2.96","","14","2","1","0","null","imgNWTK/square.png","imgNWTK/triangle.png","imgNWTK/square.png","NaN","NaN","","",""
"662","","","bandit-task-exp6","22","442902","0.0-4.0-0.14","female","25","Australia","50849","25030","imgNWTK/triangle.png","imgNWTK/square.png","imgNWTK/triangle.png","imgNWTK/square.png","noninfo","optim","2.96","","15","1","1","89","null","imgNWTK/square.png","imgNWTK/triangle.png","imgNWTK/triangle.png","NaN","NaN","","",""
"null","<p><b> Congratulations, you have finished this block. </b> </p><p>Please take a short break before moving onto the next block.</p><p>The next block will start after a 15 second break.</p><b>Remember, the point rewards are the same between blocks","","html-keyboard-response","23","457910","0.0-5.0","female","25","Australia","50849","25030","imgNWTK/triangle.png","imgNWTK/square.png","imgNWTK/triangle.png","imgNWTK/square.png","noninfo","optim","2.96","","","","","","","","","","","","null","",""
"2338","","","bandit-task-exp6","24","482185","0.0-6.0-0.0","female","25","Australia","50849","25030","imgNWTK/triangle.png","imgNWTK/square.png","imgNWTK/triangle.png","imgNWTK/square.png","noninfo","optim","2.96","","16","1","2","0","null","imgNWTK/square.png","imgNWTK/triangle.png","imgNWTK/triangle.png","NaN","NaN","","",""
"612","","","bandit-task-exp6","25","505835","0.0-6.0-0.1","female","25","Australia","50849","25030","imgNWTK/triangle.png","imgNWTK/square.png","imgNWTK/triangle.png","imgNWTK/square.png","noninfo","optim","2.96","","17","1","2","0","null","imgNWTK/square.png","imgNWTK/triangle.png","imgNWTK/triangle.png","NaN","NaN","","",""
"1245","","","bandit-task-exp6","26","532002","0.0-6.0-0.2","female","25","Australia","50849","25030","imgNWTK/triangle.png","imgNWTK/square.png","imgNWTK/triangle.png","imgNWTK/square.png","noninfo","optim","2.96","","18","2","1","0","null","imgNWTK/triangle.png","imgNWTK/square.png","imgNWTK/square.png","NaN","NaN","","",""
"1262","","","bandit-task-exp6","27","555419","0.0-6.0-0.3","female","25","Australia","50849","25030","imgNWTK/triangle.png","imgNWTK/square.png","imgNWTK/triangle.png","imgNWTK/square.png","noninfo","optim","2.96","","19","1","1","85","null","imgNWTK/square.png","imgNWTK/triangle.png","imgNWTK/triangle.png","NaN","NaN","","",""
"1011","","","bandit-task-exp6","28","578969","0.0-6.0-0.4","female","25","Australia","50849","25030","imgNWTK/triangle.png","imgNWTK/square.png","imgNWTK/triangle.png","imgNWTK/square.png","noninfo","optim","2.96","","20","2","2","111","null","imgNWTK/triangle.png","imgNWTK/square.png","imgNWTK/square.png","NaN","NaN","","",""
"2294","","","bandit-task-exp6","29","604736","0.0-6.0-0.5","female","25","Australia","50849","25030","imgNWTK/triangle.png","imgNWTK/square.png","imgNWTK/triangle.png","imgNWTK/square.png","noninfo","optim","2.96","","21","2","2","121","null","imgNWTK/triangle.png","imgNWTK/square.png","imgNWTK/square.png","NaN","NaN","","",""
"2345","","","bandit-task-exp6","30","628970","0.0-6.0-0.6","female","25","Australia","50849","25030","imgNWTK/triangle.png","imgNWTK/square.png","imgNWTK/triangle.png","imgNWTK/square.png","noninfo","optim","2.96","","22","1","2","0","null","imgNWTK/triangle.png","imgNWTK/square.png","imgNWTK/triangle.png","NaN","NaN","","",""
"826","","","bandit-task-exp6","31","653702","0.0-6.0-0.7","female","25","Australia","50849","25030","imgNWTK/triangle.png","imgNWTK/square.png","imgNWTK/triangle.png","imgNWTK/square.png","noninfo","optim","2.96","","23","2","2","128","null","imgNWTK/triangle.png","imgNWTK/square.png","imgNWTK/square.png","NaN","NaN","","",""
"2229","","","bandit-task-exp6","32","679418","0.0-6.0-0.8","female","25","Australia","50849","25030","imgNWTK/triangle.png","imgNWTK/square.png","imgNWTK/triangle.png","imgNWTK/square.png","noninfo","optim","2.96","","24","2","2","129","null","imgNWTK/triangle.png","imgNWTK/square.png","imgNWTK/square.png","NaN","NaN","","",""
"680","","","bandit-task-exp6","33","703419","0.0-6.0-0.9","female","25","Australia","50849","25030","imgNWTK/triangle.png","imgNWTK/square.png","imgNWTK/triangle.png","imgNWTK/square.png","noninfo","optim","2.96","","25","1","2","0","null","imgNWTK/triangle.png","imgNWTK/square.png","imgNWTK/triangle.png","NaN","NaN","","",""
"1362","","","bandit-task-exp6","34","729154","0.0-6.0-0.10","female","25","Australia","50849","25030","imgNWTK/triangle.png","imgNWTK/square.png","imgNWTK/triangle.png","imgNWTK/square.png","noninfo","optim","2.96","","26","1","2","0","null","imgNWTK/triangle.png","imgNWTK/square.png","imgNWTK/triangle.png","NaN","NaN","","",""
"1061","","","bandit-task-exp6","35","751920","0.0-6.0-0.11","female","25","Australia","50849","25030","imgNWTK/triangle.png","imgNWTK/square.png","imgNWTK/triangle.png","imgNWTK/square.png","noninfo","optim","2.96","","27","1","2","0","null","imgNWTK/square.png","imgNWTK/triangle.png","imgNWTK/triangle.png","NaN","NaN","","",""
"795","","","bandit-task-exp6","36","774853","0.0-6.0-0.12","female","25","Australia","50849","25030","imgNWTK/triangle.png","imgNWTK/square.png","imgNWTK/triangle.png","imgNWTK/square.png","noninfo","optim","2.96","","28","2","2","113","null","imgNWTK/triangle.png","imgNWTK/square.png","imgNWTK/square.png","NaN","NaN","","",""
"662","","","bandit-task-exp6","37","797188","0.0-6.0-0.13","female","25","Australia","50849","25030","imgNWTK/triangle.png","imgNWTK/square.png","imgNWTK/triangle.png","imgNWTK/square.png","noninfo","optim","2.96","","29","2","2","118","null","imgNWTK/triangle.png","imgNWTK/square.png","imgNWTK/square.png","NaN","NaN","","",""
"1061","","","bandit-task-exp6","38","820020","0.0-6.0-0.14","female","25","Australia","50849","25030","imgNWTK/triangle.png","imgNWTK/square.png","imgNWTK/triangle.png","imgNWTK/square.png","noninfo","optim","2.96","","30","2","1","0","null","imgNWTK/square.png","imgNWTK/triangle.png","imgNWTK/square.png","NaN","NaN","","",""
"null","<p><b> Congratulations, you have finished this block. </b> </p><p>Please take a short break before moving onto the next block.</p><p>The next block will start after a 15 second break.</p><b>Remember, the point rewards are the same between blocks","","html-keyboard-response","39","835024","0.0-7.0","female","25","Australia","50849","25030","imgNWTK/triangle.png","imgNWTK/square.png","imgNWTK/triangle.png","imgNWTK/square.png","noninfo","optim","2.96","","","","","","","","","","","","null","",""
"1490","","","bandit-task-exp6","40","858654","0.0-8.0-0.0","female","25","Australia","50849","25030","imgNWTK/triangle.png","imgNWTK/square.png","imgNWTK/triangle.png","imgNWTK/square.png","noninfo","optim","2.96","","31","2","1","0","null","imgNWTK/square.png","imgNWTK/triangle.png","imgNWTK/square.png","NaN","NaN","","",""
"645","","","bandit-task-exp6","41","885521","0.0-8.0-0.1","female","25","Australia","50849","25030","imgNWTK/triangle.png","imgNWTK/square.png","imgNWTK/triangle.png","imgNWTK/square.png","noninfo","optim","2.96","","32","1","2","0","null","imgNWTK/square.png","imgNWTK/triangle.png","imgNWTK/triangle.png","NaN","NaN","","",""
"710","","","bandit-task-exp6","42","908105","0.0-8.0-0.2","female","25","Australia","50849","25030","imgNWTK/triangle.png","imgNWTK/square.png","imgNWTK/triangle.png","imgNWTK/square.png","noninfo","optim","2.96","","33","2","1","0","null","imgNWTK/triangle.png","imgNWTK/square.png","imgNWTK/square.png","NaN","NaN","","",""
"761","","","bandit-task-exp6","43","931371","0.0-8.0-0.3","female","25","Australia","50849","25030","imgNWTK/triangle.png","imgNWTK/square.png","imgNWTK/triangle.png","imgNWTK/square.png","noninfo","optim","2.96","","34","1","2","0","null","imgNWTK/triangle.png","imgNWTK/square.png","imgNWTK/triangle.png","NaN","NaN","","",""
"694","","","bandit-task-exp6","44","953737","0.0-8.0-0.4","female","25","Australia","50849","25030","imgNWTK/triangle.png","imgNWTK/square.png","imgNWTK/triangle.png","imgNWTK/square.png","noninfo","optim","2.96","","35","2","2","122","null","imgNWTK/triangle.png","imgNWTK/square.png","imgNWTK/square.png","NaN","NaN","","",""
"1079","","","bandit-task-exp6","45","976388","0.0-8.0-0.5","female","25","Australia","50849","25030","imgNWTK/triangle.png","imgNWTK/square.png","imgNWTK/triangle.png","imgNWTK/square.png","noninfo","optim","2.96","","36","1","2","0","null","imgNWTK/square.png","imgNWTK/triangle.png","imgNWTK/triangle.png","NaN","NaN","","",""
"1062","","","bandit-task-exp6","46","1000388","0.0-8.0-0.6","female","25","Australia","50849","25030","imgNWTK/triangle.png","imgNWTK/square.png","imgNWTK/triangle.png","imgNWTK/square.png","noninfo","optim","2.96","","37","1","2","0","null","imgNWTK/triangle.png","imgNWTK/square.png","imgNWTK/triangle.png","NaN","NaN","","",""
"678","","","bandit-task-exp6","47","1022706","0.0-8.0-0.7","female","25","Australia","50849","25030","imgNWTK/triangle.png","imgNWTK/square.png","imgNWTK/triangle.png","imgNWTK/square.png","noninfo","optim","2.96","","38","2","1","0","null","imgNWTK/triangle.png","imgNWTK/square.png","imgNWTK/square.png","NaN","NaN","","",""
"960","","","bandit-task-exp6","48","1046304","0.0-8.0-0.8","female","25","Australia","50849","25030","imgNWTK/triangle.png","imgNWTK/square.png","imgNWTK/triangle.png","imgNWTK/square.png","noninfo","optim","2.96","","39","2","1","0","null","imgNWTK/square.png","imgNWTK/triangle.png","imgNWTK/square.png","NaN","NaN","","",""
"863","","","bandit-task-exp6","49","1068621","0.0-8.0-0.9","female","25","Australia","50849","25030","imgNWTK/triangle.png","imgNWTK/square.png","imgNWTK/triangle.png","imgNWTK/square.png","noninfo","optim","2.96","","40","2","1","0","null","imgNWTK/triangle.png","imgNWTK/square.png","imgNWTK/square.png","NaN","NaN","","",""
"879","","","bandit-task-exp6","50","1091154","0.0-8.0-0.10","female","25","Australia","50849","25030","imgNWTK/triangle.png","imgNWTK/square.png","imgNWTK/triangle.png","imgNWTK/square.png","noninfo","optim","2.96","","41","1","1","84","null","imgNWTK/square.png","imgNWTK/triangle.png","imgNWTK/triangle.png","NaN","NaN","","",""
"829","","","bandit-task-exp6","51","1114054","0.0-8.0-0.11","female","25","Australia","50849","25030","imgNWTK/triangle.png","imgNWTK/square.png","imgNWTK/triangle.png","imgNWTK/square.png","noninfo","optim","2.96","","42","2","2","124","null","imgNWTK/triangle.png","imgNWTK/square.png","imgNWTK/square.png","NaN","NaN","","",""
"896","","","bandit-task-exp6","52","1136671","0.0-8.0-0.12","female","25","Australia","50849","25030","imgNWTK/triangle.png","imgNWTK/square.png","imgNWTK/triangle.png","imgNWTK/square.png","noninfo","optim","2.96","","43","2","2","124","null","imgNWTK/triangle.png","imgNWTK/square.png","imgNWTK/square.png","NaN","NaN","","",""
"1111","","","bandit-task-exp6","53","1159281","0.0-8.0-0.13","female","25","Australia","50849","25030","imgNWTK/triangle.png","imgNWTK/square.png","imgNWTK/triangle.png","imgNWTK/square.png","noninfo","optim","2.96","","44","2","1","0","null","imgNWTK/square.png","imgNWTK/triangle.png","imgNWTK/square.png","NaN","NaN","","",""
"1147","","","bandit-task-exp6","54","1182126","0.0-8.0-0.14","female","25","Australia","50849","25030","imgNWTK/triangle.png","imgNWTK/square.png","imgNWTK/triangle.png","imgNWTK/square.png","noninfo","optim","2.96","","45","1","2","0","null","imgNWTK/triangle.png","imgNWTK/square.png","imgNWTK/triangle.png","NaN","NaN","","",""
"null","<p><b> Congratulations, you have finished this block. </b> </p><p>Please take a short break before moving onto the next block.</p><p>The next block will start after a 15 second break.</p><b>Remember, the point rewards are the same between blocks","","html-keyboard-response","55","1197134","0.0-9.0","female","25","Australia","50849","25030","imgNWTK/triangle.png","imgNWTK/square.png","imgNWTK/triangle.png","imgNWTK/square.png","noninfo","optim","2.96","","","","","","","","","","","","null","",""
"13473","","","bandit-task-exp6","56","1233363","0.0-10.0-0.0","female","25","Australia","50849","25030","imgNWTK/triangle.png","imgNWTK/square.png","imgNWTK/triangle.png","imgNWTK/square.png","noninfo","optim","2.96","","46","1","2","0","null","imgNWTK/triangle.png","imgNWTK/square.png","imgNWTK/triangle.png","124","0","","",""
"7527","","","bandit-task-exp6","57","1264648","0.0-10.0-0.1","female","25","Australia","50849","25030","imgNWTK/triangle.png","imgNWTK/square.png","imgNWTK/triangle.png","imgNWTK/square.png","noninfo","optim","2.96","","47","2","2","116","null","imgNWTK/triangle.png","imgNWTK/square.png","imgNWTK/square.png","124","84","","",""
"6162","","","bandit-task-exp6","58","1292815","0.0-10.0-0.2","female","25","Australia","50849","25030","imgNWTK/triangle.png","imgNWTK/square.png","imgNWTK/triangle.png","imgNWTK/square.png","noninfo","optim","2.96","","48","2","2","130","null","imgNWTK/triangle.png","imgNWTK/square.png","imgNWTK/square.png","0","84","","",""
"4609","","","bandit-task-exp6","59","1320113","0.0-10.0-0.3","female","25","Australia","50849","25030","imgNWTK/triangle.png","imgNWTK/square.png","imgNWTK/triangle.png","imgNWTK/square.png","noninfo","optim","2.96","","49","1","1","85","null","imgNWTK/triangle.png","imgNWTK/square.png","imgNWTK/triangle.png","0","0","","",""
"8512","","","bandit-task-exp6","60","1353633","0.0-10.0-0.4","female","25","Australia","50849","25030","imgNWTK/triangle.png","imgNWTK/square.png","imgNWTK/triangle.png","imgNWTK/square.png","noninfo","optim","2.96","","50","1","1","79","null","imgNWTK/square.png","imgNWTK/triangle.png","imgNWTK/triangle.png","0","124","","",""
"4758","","","bandit-task-exp6","61","1380098","0.0-10.0-0.5","female","25","Australia","50849","25030","imgNWTK/triangle.png","imgNWTK/square.png","imgNWTK/triangle.png","imgNWTK/square.png","noninfo","optim","2.96","","51","2","2","127","null","imgNWTK/triangle.png","imgNWTK/square.png","imgNWTK/square.png","0","120","","",""
"4010","","","bandit-task-exp6","62","1405998","0.0-10.0-0.6","female","25","Australia","50849","25030","imgNWTK/triangle.png","imgNWTK/square.png","imgNWTK/triangle.png","imgNWTK/square.png","noninfo","optim","2.96","","52","2","1","0","null","imgNWTK/triangle.png","imgNWTK/square.png","imgNWTK/square.png","0","0","","",""
"7128","","","bandit-task-exp6","63","1434965","0.0-10.0-0.7","female","25","Australia","50849","25030","imgNWTK/triangle.png","imgNWTK/square.png","imgNWTK/triangle.png","imgNWTK/square.png","noninfo","optim","2.96","","53","1","2","0","null","imgNWTK/square.png","imgNWTK/triangle.png","imgNWTK/triangle.png","0","84","","",""
"6445","","","bandit-task-exp6","64","1464082","0.0-10.0-0.8","female","25","Australia","50849","25030","imgNWTK/triangle.png","imgNWTK/square.png","imgNWTK/triangle.png","imgNWTK/square.png","noninfo","optim","2.96","","54","2","2","120","null","imgNWTK/square.png","imgNWTK/triangle.png","imgNWTK/square.png","84","120","","",""
"5895","","","bandit-task-exp6","65","1491649","0.0-10.0-0.9","female","25","Australia","50849","25030","imgNWTK/triangle.png","imgNWTK/square.png","imgNWTK/triangle.png","imgNWTK/square.png","noninfo","optim","2.96","","55","1","2","0","null","imgNWTK/square.png","imgNWTK/triangle.png","imgNWTK/triangle.png","120","40","","",""
"6493","","","bandit-task-exp6","66","1519866","0.0-10.0-0.10","female","25","Australia","50849","25030","imgNWTK/triangle.png","imgNWTK/square.png","imgNWTK/triangle.png","imgNWTK/square.png","noninfo","optim","2.96","","56","1","2","0","null","imgNWTK/triangle.png","imgNWTK/square.png","imgNWTK/triangle.png","0","84","","",""
"7010","","","bandit-task-exp6","67","1549065","0.0-10.0-0.11","female","25","Australia","50849","25030","imgNWTK/triangle.png","imgNWTK/square.png","imgNWTK/triangle.png","imgNWTK/square.png","noninfo","optim","2.96","","57","2","2","115","null","imgNWTK/square.png","imgNWTK/triangle.png","imgNWTK/square.png","80","120","","",""
"5278","","","bandit-task-exp6","68","1577283","0.0-10.0-0.12","female","25","Australia","50849","25030","imgNWTK/triangle.png","imgNWTK/square.png","imgNWTK/triangle.png","imgNWTK/square.png","noninfo","optim","2.96","","58","2","1","0","null","imgNWTK/square.png","imgNWTK/triangle.png","imgNWTK/square.png","20","80","","",""
"9160","","","bandit-task-exp6","69","1608235","0.0-10.0-0.13","female","25","Australia","50849","25030","imgNWTK/triangle.png","imgNWTK/square.png","imgNWTK/triangle.png","imgNWTK/square.png","noninfo","optim","2.96","","59","1","2","0","null","imgNWTK/triangle.png","imgNWTK/square.png","imgNWTK/triangle.png","80","120","","",""
"8458","","","bandit-task-exp6","70","1640483","0.0-10.0-0.14","female","25","Australia","50849","25030","imgNWTK/triangle.png","imgNWTK/square.png","imgNWTK/triangle.png","imgNWTK/square.png","noninfo","optim","2.96","","60","1","2","0","null","imgNWTK/square.png","imgNWTK/triangle.png","imgNWTK/triangle.png","80","110","","",""
"3096","<p> Congratulations, you have finished the main part of the experiment. </p><p>Before you finish, we have a few short questions about the options and outcomes you saw in the task.</p>","0","html-button-response","71","1643584","0.0-11.0","female","25","Australia","50849","25030","imgNWTK/triangle.png","imgNWTK/square.png","imgNWTK/triangle.png","imgNWTK/square.png","noninfo","optim","2.96","","","","","","","","","","","","","",""
"10580","<p><b>Now, imagine that you clicked on the below button for another 10 trials (this includes <i> BOTH WIN and NO-WIN trials</i>).</p> <img src= 'imgNWTK/triangle.png'></img></br></br> <p><b>Please type the reward (number of points) you would expect to receive on every trial.</br> Click start to begin.</p>","0","html-button-response","72","1654166","0.0-12.0","female","25","Australia","50849","25030","imgNWTK/triangle.png","imgNWTK/square.png","imgNWTK/triangle.png","imgNWTK/square.png","noninfo","optim","2.96","","","","","","","","","","","","","",""
"5977.5","","","survey-number","73","1660152","0.0-13.0-0.0","female","25","Australia","50849","25030","imgNWTK/triangle.png","imgNWTK/square.png","imgNWTK/triangle.png","imgNWTK/square.png","noninfo","optim","2.96","{""undefined"":""84""}","","","","","","","","","","","","imgNWTK/triangle.png",""
"3726.5","","","survey-number","74","1663883","0.0-13.0-0.1","female","25","Australia","50849","25030","imgNWTK/triangle.png","imgNWTK/square.png","imgNWTK/triangle.png","imgNWTK/square.png","noninfo","optim","2.96","{""undefined"":""48""}","","","","","","","","","","","","imgNWTK/triangle.png",""
"1962.1000000238419","","","survey-number","75","1665849","0.0-13.0-0.2","female","25","Australia","50849","25030","imgNWTK/triangle.png","imgNWTK/square.png","imgNWTK/triangle.png","imgNWTK/square.png","noninfo","optim","2.96","{""undefined"":""110""}","","","","","","","","","","","","imgNWTK/triangle.png",""
"3715.199999988079","","","survey-number","76","1669567","0.0-13.0-0.3","female","25","Australia","50849","25030","imgNWTK/triangle.png","imgNWTK/square.png","imgNWTK/triangle.png","imgNWTK/square.png","noninfo","optim","2.96","{""undefined"":""0""}","","","","","","","","","","","","imgNWTK/triangle.png",""
"3277.699999988079","","","survey-number","77","1672849","0.0-13.0-0.4","female","25","Australia","50849","25030","imgNWTK/triangle.png","imgNWTK/square.png","imgNWTK/triangle.png","imgNWTK/square.png","noninfo","optim","2.96","{""undefined"":""0""}","","","","","","","","","","","","imgNWTK/triangle.png",""
"4497.5999999940395","","","survey-number","78","1677350","0.0-13.0-0.5","female","25","Australia","50849","25030","imgNWTK/triangle.png","imgNWTK/square.png","imgNWTK/triangle.png","imgNWTK/square.png","noninfo","optim","2.96","{""undefined"":""45""}","","","","","","","","","","","","imgNWTK/triangle.png",""
"2280.800000011921","","","survey-number","79","1679634","0.0-13.0-0.6","female","25","Australia","50849","25030","imgNWTK/triangle.png","imgNWTK/square.png","imgNWTK/triangle.png","imgNWTK/square.png","noninfo","optim","2.96","{""undefined"":""24""}","","","","","","","","","","","","imgNWTK/triangle.png",""
"1212","","","survey-number","80","1680850","0.0-13.0-0.7","female","25","Australia","50849","25030","imgNWTK/triangle.png","imgNWTK/square.png","imgNWTK/triangle.png","imgNWTK/square.png","noninfo","optim","2.96","{""undefined"":""0""}","","","","","","","","","","","","imgNWTK/triangle.png",""
"830.8000000119209","","","survey-number","81","1681683","0.0-13.0-0.8","female","25","Australia","50849","25030","imgNWTK/triangle.png","imgNWTK/square.png","imgNWTK/triangle.png","imgNWTK/square.png","noninfo","optim","2.96","{""undefined"":""0""}","","","","","","","","","","","","imgNWTK/triangle.png",""
"3696.0999999940395","","","survey-number","82","1685384","0.0-13.0-0.9","female","25","Australia","50849","25030","imgNWTK/triangle.png","imgNWTK/square.png","imgNWTK/triangle.png","imgNWTK/square.png","noninfo","optim","2.96","{""undefined"":""124""}","","","","","","","","","","","","imgNWTK/triangle.png",""
"3597","<p><b>Imagine that you clicked on the below button for another 10 trials (this includes <i> both WIN and NO-WIN trials</i>).</p> <img src= 'imgNWTK/square.png'></img></br></br> <p><b>Please type the reward (number of points) you would expect to receive on every trial.</br> Click start to begin.</p>","0","html-button-response","83","1688983","0.0-14.0","female","25","Australia","50849","25030","imgNWTK/triangle.png","imgNWTK/square.png","imgNWTK/triangle.png","imgNWTK/square.png","noninfo","optim","2.96","","","","","","","","","","","","","",""
"2395.699999988079","","","survey-number","84","1691383","0.0-15.0-0.0","female","25","Australia","50849","25030","imgNWTK/triangle.png","imgNWTK/square.png","imgNWTK/triangle.png","imgNWTK/square.png","noninfo","optim","2.96","{""undefined"":""0""}","","","","","","","","","","","","imgNWTK/square.png",""
"795.2000000178814","","","survey-number","85","1692182","0.0-15.0-0.1","female","25","Australia","50849","25030","imgNWTK/triangle.png","imgNWTK/square.png","imgNWTK/triangle.png","imgNWTK/square.png","noninfo","optim","2.96","{""undefined"":""0""}","","","","","","","","","","","","imgNWTK/square.png",""
"799.2000000178814","","","survey-number","86","1692983","0.0-15.0-0.2","female","25","Australia","50849","25030","imgNWTK/triangle.png","imgNWTK/square.png","imgNWTK/triangle.png","imgNWTK/square.png","noninfo","optim","2.96","{""undefined"":""0""}","","","","","","","","","","","","imgNWTK/square.png",""
"1346.4000000059605","","","survey-number","87","1694334","0.0-15.0-0.3","female","25","Australia","50849","25030","imgNWTK/triangle.png","imgNWTK/square.png","imgNWTK/triangle.png","imgNWTK/square.png","noninfo","optim","2.96","{""undefined"":""120""}","","","","","","","","","","","","imgNWTK/square.png",""
"3862.4000000059605","","","survey-number","88","1698200","0.0-15.0-0.4","female","25","Australia","50849","25030","imgNWTK/triangle.png","imgNWTK/square.png","imgNWTK/triangle.png","imgNWTK/square.png","noninfo","optim","2.96","{""undefined"":""118""}","","","","","","","","","","","","imgNWTK/square.png",""
"3745.399999976158","","","survey-number","89","1701950","0.0-15.0-0.5","female","25","Australia","50849","25030","imgNWTK/triangle.png","imgNWTK/square.png","imgNWTK/triangle.png","imgNWTK/square.png","noninfo","optim","2.96","{""undefined"":""140""}","","","","","","","","","","","","imgNWTK/square.png",""
"1879.7999999821186","","","survey-number","90","1703834","0.0-15.0-0.6","female","25","Australia","50849","25030","imgNWTK/triangle.png","imgNWTK/square.png","imgNWTK/triangle.png","imgNWTK/square.png","noninfo","optim","2.96","{""undefined"":""24""}","","","","","","","","","","","","imgNWTK/square.png",""
"3746","","","survey-number","91","1707584","0.0-15.0-0.7","female","25","Australia","50849","25030","imgNWTK/triangle.png","imgNWTK/square.png","imgNWTK/triangle.png","imgNWTK/square.png","noninfo","optim","2.96","{""undefined"":""84""}","","","","","","","","","","","","imgNWTK/square.png",""
"1213.300000011921","","","survey-number","92","1708801","0.0-15.0-0.8","female","25","Australia","50849","25030","imgNWTK/triangle.png","imgNWTK/square.png","imgNWTK/triangle.png","imgNWTK/square.png","noninfo","optim","2.96","{""undefined"":""0""}","","","","","","","","","","","","imgNWTK/square.png",""
"595.5999999940395","","","survey-number","93","1709401","0.0-15.0-0.9","female","25","Australia","50849","25030","imgNWTK/triangle.png","imgNWTK/square.png","imgNWTK/triangle.png","imgNWTK/square.png","noninfo","optim","2.96","{""undefined"":""0""}","","","","","","","","","","","","imgNWTK/square.png",""
"12554.5","","","survey-number","94","1721966","0.0-16.0","female","25","Australia","50849","25030","imgNWTK/triangle.png","imgNWTK/square.png","imgNWTK/triangle.png","imgNWTK/square.png","noninfo","optim","2.96","{""undefined"":""84""}","","","","","","","","","","","","","imgNWTK/square.png"
"4096.700000017881","","","survey-number","95","1726065","0.0-17.0","female","25","Australia","50849","25030","imgNWTK/triangle.png","imgNWTK/square.png","imgNWTK/triangle.png","imgNWTK/square.png","noninfo","optim","2.96","{""undefined"":""110""}","","","","","","","","","","","","","imgNWTK/triangle.png"
"21950","<p style=""text-align:left;"">Great! We are almost at the end of the study... (Please do not close the browser window yet.)</p><p> Your final points balance is 2961, which equals to a bonus payment of $2.96. The payment can be collected from MAT721; please email amy.x.li@unsw.edu.au at least 24 hours prior to collection so that this is ready for you.</p><p style=""text-align:left;"">To view the debriefing form, please click <a href=""./imgNWTK/debrief_3205.pdf"" target=""_blank"">here</a> to download a copy.</p><p style=""text-align:left;"">Then, <b>please click the below button</b> to confirm that you have received your debrief and to complete the study. Upon clicking ""Finish!"", your SONA credit will be automatically assigned.</p>","0","html-button-response","96","1748018","0.0-18.0","female","25","Australia","50849","25030","imgNWTK/triangle.png","imgNWTK/square.png","imgNWTK/triangle.png","imgNWTK/square.png","noninfo","optim","2.96","","","","","","","","","","","","","",""
