"rt","stimulus","button_pressed","trial_type","trial_index","time_elapsed","internal_node_id","gender","age","language","PID","sona_id","subStim","optStim","stim1","stim2","infoCond","optimCond","bonus","responses","banditTrial","choice","cue","feedback","estimateData","leftOption","rightOption","choiceName","leftInput","rightInput","key_press","postQ","singleEst"
"15331","<p>Thank you for signing up to participate in SONA Study 465! <br> During this study, please focus on the experiment and refrain from activities such as:</p>- <b>Switching to other tabs on your browser (this will be monitored via the experiment)</br> - Using your mobile phone/cell phone</br> - Communicating with others</br></br></b><p>This way, you are helping to provide data that is useful for psychological research. We thank you for your cooperation!</p>","0","html-button-response","0","15334","0.0-0.0","female","20","Chian","74637","26180","neither","neither","imgNWTK/KeepItSecret.jpg","imgNWTK/FindOutNow.jpg","info","eq","3.48","","","","","","","","","","","","","",""
"2423","<p>Welcome to the experiment!</p><p>You will now read some instructions about the task. Press the 'Next' button to continue. </p>","0","html-button-response","1","17759","0.0-1.0","female","20","Chian","74637","26180","neither","neither","imgNWTK/KeepItSecret.jpg","imgNWTK/FindOutNow.jpg","info","eq","3.48","","","","","","","","","","","","","",""
"15501","<p> On each trial throughout the experiment you will choose between the options </br><b> Find Out Now </b> and <b> Keep It Secret </b>, as shown below.</p><div><div style= 'float: left; width: 300px; margin: 10px 10px;'><img src= 'imgNWTK/KeepItSecret.jpg'></img></div><div style= 'float: right; width: 300px; margin: 10px 10px;'><img src= 'imgNWTK/FindOutNow.jpg'></img></div></div><br/><br/><br/><br/><br/><br/><br/><br/><br/><br/><br/><p>Each option results in winning points or receiving 0 points.</br>There is a 50% chance of either winning or receiving 0 points.</p><p>You won't receive the outcome until after a <b> 20 second delay</b>. However, selecting the Find Out Now option will allow you to find out about the outcome early, whereas the Keep It Secret option will not. </p>","0","html-button-response","2","33262","0.0-2.0-0.0","female","20","Chian","74637","26180","neither","neither","imgNWTK/KeepItSecret.jpg","imgNWTK/FindOutNow.jpg","info","eq","3.48","","","","","","","","","","","","","",""
"33197","<img src= 'cues/Experiment6.png'></img><p>As seen above, when choosing the <b>'Find Out Now'</b> option, you will receive either a happy face or sad face.</br>The happy face means you will win points after the delay, whereas the sad face means you will receive 0 points.</br></p><p> When choosing the <b> 'Keep it Secret' </b> option you will receive a confused face.</br> This face appears regardless of whether you are going to win points or not. </p>In short, choosing 'Find Out Now' allows you to find out the outcome before you experience it (after the delay).</br></br>","0","html-button-response","3","66461","0.0-2.0-1.0","female","20","Chian","74637","26180","neither","neither","imgNWTK/KeepItSecret.jpg","imgNWTK/FindOutNow.jpg","info","eq","3.48","","","","","","","","","","","","","",""
"6563","<img src= 'cues/winTrials_info.png' width = '1200'></img><p>To reiterate, 50% of the outcomes of each option will be WIN TRIALS, and the other 50% will be NO-WIN TRIALS.","0","html-button-response","4","73027","0.0-2.0-2.0","female","20","Chian","74637","26180","neither","neither","imgNWTK/KeepItSecret.jpg","imgNWTK/FindOutNow.jpg","info","eq","3.48","","","","","","","","","","","","","",""
"17189","<p> There will be <b>four blocks</b> in the experiment.</br>You will be given a short 15 second break between each block.</p><p><b>The points and the options will remain the same between the blocks.</b></p>The blocks are there just to give you a small break.</br></br><p>The points you earn in the task are also equal to <b> actual money</b>.</br> <b>1000 points is equal to $1.</b></p><p>This is the rate you will be paid at the experiment's end.","0","html-button-response","5","90217","0.0-2.0-3.0","female","20","Chian","74637","26180","neither","neither","imgNWTK/KeepItSecret.jpg","imgNWTK/FindOutNow.jpg","info","eq","3.48","","","","","","","","","","","","","",""
"31424","","","survey-multi-choice","6","121647","0.0-2.0-4.0","female","20","Chian","74637","26180","neither","neither","imgNWTK/KeepItSecret.jpg","imgNWTK/FindOutNow.jpg","info","eq","3.48","{""Q0"":""20 Seconds"",""Q1"":""True"",""Q2"":""Equally"",""Q3"":""True""}","","","","","","","","","","","","",""
"5118","<p> Well done, all your answers were correct! <br> The experiment is about to start now. <br/> Click start to continue, or email your researcher <b>(amy.x.li@unsw.edu.au)</b> if you have any questions before starting.","0","html-button-response","7","126769","0.0-3.0","female","20","Chian","74637","26180","neither","neither","imgNWTK/KeepItSecret.jpg","imgNWTK/FindOutNow.jpg","info","eq","3.48","","","","","","","","","","","","","",""
"2759","","","bandit-task-exp6","8","152522","0.0-4.0-0.0","female","20","Chian","74637","26180","neither","neither","imgNWTK/KeepItSecret.jpg","imgNWTK/FindOutNow.jpg","info","eq","3.48","","1","2","1","0","null","imgNWTK/FindOutNow.jpg","imgNWTK/KeepItSecret.jpg","imgNWTK/FindOutNow.jpg","NaN","NaN","","",""
"2895","","","bandit-task-exp6","9","181205","0.0-4.0-0.1","female","20","Chian","74637","26180","neither","neither","imgNWTK/KeepItSecret.jpg","imgNWTK/FindOutNow.jpg","info","eq","3.48","","2","2","1","0","null","imgNWTK/FindOutNow.jpg","imgNWTK/KeepItSecret.jpg","imgNWTK/FindOutNow.jpg","NaN","NaN","","",""
"814","","","bandit-task-exp6","10","204562","0.0-4.0-0.2","female","20","Chian","74637","26180","neither","neither","imgNWTK/KeepItSecret.jpg","imgNWTK/FindOutNow.jpg","info","eq","3.48","","3","2","2","95","null","imgNWTK/KeepItSecret.jpg","imgNWTK/FindOutNow.jpg","imgNWTK/FindOutNow.jpg","NaN","NaN","","",""
"1243","","","bandit-task-exp6","11","228307","0.0-4.0-0.3","female","20","Chian","74637","26180","neither","neither","imgNWTK/KeepItSecret.jpg","imgNWTK/FindOutNow.jpg","info","eq","3.48","","4","1","1","91","null","imgNWTK/KeepItSecret.jpg","imgNWTK/FindOutNow.jpg","imgNWTK/KeepItSecret.jpg","NaN","NaN","","",""
"1028","","","bandit-task-exp6","12","251506","0.0-4.0-0.4","female","20","Chian","74637","26180","neither","neither","imgNWTK/KeepItSecret.jpg","imgNWTK/FindOutNow.jpg","info","eq","3.48","","5","1","2","0","null","imgNWTK/FindOutNow.jpg","imgNWTK/KeepItSecret.jpg","imgNWTK/KeepItSecret.jpg","NaN","NaN","","",""
"959","","","bandit-task-exp6","13","274684","0.0-4.0-0.5","female","20","Chian","74637","26180","neither","neither","imgNWTK/KeepItSecret.jpg","imgNWTK/FindOutNow.jpg","info","eq","3.48","","6","1","1","92","null","imgNWTK/FindOutNow.jpg","imgNWTK/KeepItSecret.jpg","imgNWTK/KeepItSecret.jpg","NaN","NaN","","",""
"2231","","","bandit-task-exp6","14","298999","0.0-4.0-0.6","female","20","Chian","74637","26180","neither","neither","imgNWTK/KeepItSecret.jpg","imgNWTK/FindOutNow.jpg","info","eq","3.48","","7","2","1","0","null","imgNWTK/KeepItSecret.jpg","imgNWTK/FindOutNow.jpg","imgNWTK/FindOutNow.jpg","NaN","NaN","","",""
"1310","","","bandit-task-exp6","15","323072","0.0-4.0-0.7","female","20","Chian","74637","26180","neither","neither","imgNWTK/KeepItSecret.jpg","imgNWTK/FindOutNow.jpg","info","eq","3.48","","8","1","1","96","null","imgNWTK/KeepItSecret.jpg","imgNWTK/FindOutNow.jpg","imgNWTK/KeepItSecret.jpg","NaN","NaN","","",""
"1200","","","bandit-task-exp6","16","346450","0.0-4.0-0.8","female","20","Chian","74637","26180","neither","neither","imgNWTK/KeepItSecret.jpg","imgNWTK/FindOutNow.jpg","info","eq","3.48","","9","1","1","95","null","imgNWTK/KeepItSecret.jpg","imgNWTK/FindOutNow.jpg","imgNWTK/KeepItSecret.jpg","NaN","NaN","","",""
"1254","","","bandit-task-exp6","17","370967","0.0-4.0-0.9","female","20","Chian","74637","26180","neither","neither","imgNWTK/KeepItSecret.jpg","imgNWTK/FindOutNow.jpg","info","eq","3.48","","10","1","1","98","null","imgNWTK/KeepItSecret.jpg","imgNWTK/FindOutNow.jpg","imgNWTK/KeepItSecret.jpg","NaN","NaN","","",""
"1315","","","bandit-task-exp6","18","394839","0.0-4.0-0.10","female","20","Chian","74637","26180","neither","neither","imgNWTK/KeepItSecret.jpg","imgNWTK/FindOutNow.jpg","info","eq","3.48","","11","1","1","99","null","imgNWTK/FindOutNow.jpg","imgNWTK/KeepItSecret.jpg","imgNWTK/KeepItSecret.jpg","NaN","NaN","","",""
"1283","","","bandit-task-exp6","19","418803","0.0-4.0-0.11","female","20","Chian","74637","26180","neither","neither","imgNWTK/KeepItSecret.jpg","imgNWTK/FindOutNow.jpg","info","eq","3.48","","12","1","2","0","null","imgNWTK/FindOutNow.jpg","imgNWTK/KeepItSecret.jpg","imgNWTK/KeepItSecret.jpg","NaN","NaN","","",""
"1506","","","bandit-task-exp6","20","442426","0.0-4.0-0.12","female","20","Chian","74637","26180","neither","neither","imgNWTK/KeepItSecret.jpg","imgNWTK/FindOutNow.jpg","info","eq","3.48","","13","1","2","0","null","imgNWTK/FindOutNow.jpg","imgNWTK/KeepItSecret.jpg","imgNWTK/KeepItSecret.jpg","NaN","NaN","","",""
"2153","","","bandit-task-exp6","21","466540","0.0-4.0-0.13","female","20","Chian","74637","26180","neither","neither","imgNWTK/KeepItSecret.jpg","imgNWTK/FindOutNow.jpg","info","eq","3.48","","14","2","2","92","null","imgNWTK/KeepItSecret.jpg","imgNWTK/FindOutNow.jpg","imgNWTK/FindOutNow.jpg","NaN","NaN","","",""
"3162","","","bandit-task-exp6","22","508936","0.0-4.0-0.14","female","20","Chian","74637","26180","neither","neither","imgNWTK/KeepItSecret.jpg","imgNWTK/FindOutNow.jpg","info","eq","3.48","","15","2","2","93","null","imgNWTK/KeepItSecret.jpg","imgNWTK/FindOutNow.jpg","imgNWTK/FindOutNow.jpg","NaN","NaN","","",""
"null","<p><b> Congratulations, you have finished this block. </b> </p><p>Please take a short break before moving onto the next block.</p><p>The next block will start after a 15 second break.</p><b>Remember, the point rewards are the same between blocks","","html-keyboard-response","23","523950","0.0-5.0","female","20","Chian","74637","26180","neither","neither","imgNWTK/KeepItSecret.jpg","imgNWTK/FindOutNow.jpg","info","eq","3.48","","","","","","","","","","","","null","",""
"3094","","","bandit-task-exp6","24","549169","0.0-6.0-0.0","female","20","Chian","74637","26180","neither","neither","imgNWTK/KeepItSecret.jpg","imgNWTK/FindOutNow.jpg","info","eq","3.48","","16","1","1","100","null","imgNWTK/KeepItSecret.jpg","imgNWTK/FindOutNow.jpg","imgNWTK/KeepItSecret.jpg","NaN","NaN","","",""
"2065","","","bandit-task-exp6","25","573485","0.0-6.0-0.1","female","20","Chian","74637","26180","neither","neither","imgNWTK/KeepItSecret.jpg","imgNWTK/FindOutNow.jpg","info","eq","3.48","","17","2","2","104","null","imgNWTK/FindOutNow.jpg","imgNWTK/KeepItSecret.jpg","imgNWTK/FindOutNow.jpg","NaN","NaN","","",""
"2834","","","bandit-task-exp6","26","599370","0.0-6.0-0.2","female","20","Chian","74637","26180","neither","neither","imgNWTK/KeepItSecret.jpg","imgNWTK/FindOutNow.jpg","info","eq","3.48","","18","1","1","103","null","imgNWTK/KeepItSecret.jpg","imgNWTK/FindOutNow.jpg","imgNWTK/KeepItSecret.jpg","NaN","NaN","","",""
"2097","","","bandit-task-exp6","27","623447","0.0-6.0-0.3","female","20","Chian","74637","26180","neither","neither","imgNWTK/KeepItSecret.jpg","imgNWTK/FindOutNow.jpg","info","eq","3.48","","19","2","2","94","null","imgNWTK/FindOutNow.jpg","imgNWTK/KeepItSecret.jpg","imgNWTK/FindOutNow.jpg","NaN","NaN","","",""
"2383","","","bandit-task-exp6","28","647670","0.0-6.0-0.4","female","20","Chian","74637","26180","neither","neither","imgNWTK/KeepItSecret.jpg","imgNWTK/FindOutNow.jpg","info","eq","3.48","","20","2","1","0","null","imgNWTK/FindOutNow.jpg","imgNWTK/KeepItSecret.jpg","imgNWTK/FindOutNow.jpg","NaN","NaN","","",""
"1397","","","bandit-task-exp6","29","671579","0.0-6.0-0.5","female","20","Chian","74637","26180","neither","neither","imgNWTK/KeepItSecret.jpg","imgNWTK/FindOutNow.jpg","info","eq","3.48","","21","1","2","0","null","imgNWTK/KeepItSecret.jpg","imgNWTK/FindOutNow.jpg","imgNWTK/KeepItSecret.jpg","NaN","NaN","","",""
"1821","","","bandit-task-exp6","30","695543","0.0-6.0-0.6","female","20","Chian","74637","26180","neither","neither","imgNWTK/KeepItSecret.jpg","imgNWTK/FindOutNow.jpg","info","eq","3.48","","22","1","1","91","null","imgNWTK/FindOutNow.jpg","imgNWTK/KeepItSecret.jpg","imgNWTK/KeepItSecret.jpg","NaN","NaN","","",""
"1567","","","bandit-task-exp6","31","721758","0.0-6.0-0.7","female","20","Chian","74637","26180","neither","neither","imgNWTK/KeepItSecret.jpg","imgNWTK/FindOutNow.jpg","info","eq","3.48","","23","1","1","101","null","imgNWTK/KeepItSecret.jpg","imgNWTK/FindOutNow.jpg","imgNWTK/KeepItSecret.jpg","NaN","NaN","","",""
"1761","","","bandit-task-exp6","32","746689","0.0-6.0-0.8","female","20","Chian","74637","26180","neither","neither","imgNWTK/KeepItSecret.jpg","imgNWTK/FindOutNow.jpg","info","eq","3.48","","24","1","2","0","null","imgNWTK/KeepItSecret.jpg","imgNWTK/FindOutNow.jpg","imgNWTK/KeepItSecret.jpg","NaN","NaN","","",""
"1319","","","bandit-task-exp6","33","770292","0.0-6.0-0.9","female","20","Chian","74637","26180","neither","neither","imgNWTK/KeepItSecret.jpg","imgNWTK/FindOutNow.jpg","info","eq","3.48","","25","2","1","0","null","imgNWTK/KeepItSecret.jpg","imgNWTK/FindOutNow.jpg","imgNWTK/FindOutNow.jpg","NaN","NaN","","",""
"1377","","","bandit-task-exp6","34","794193","0.0-6.0-0.10","female","20","Chian","74637","26180","neither","neither","imgNWTK/KeepItSecret.jpg","imgNWTK/FindOutNow.jpg","info","eq","3.48","","26","1","2","0","null","imgNWTK/KeepItSecret.jpg","imgNWTK/FindOutNow.jpg","imgNWTK/KeepItSecret.jpg","NaN","NaN","","",""
"1355","","","bandit-task-exp6","35","818500","0.0-6.0-0.11","female","20","Chian","74637","26180","neither","neither","imgNWTK/KeepItSecret.jpg","imgNWTK/FindOutNow.jpg","info","eq","3.48","","27","1","1","102","null","imgNWTK/FindOutNow.jpg","imgNWTK/KeepItSecret.jpg","imgNWTK/KeepItSecret.jpg","NaN","NaN","","",""
"1881","","","bandit-task-exp6","36","843440","0.0-6.0-0.12","female","20","Chian","74637","26180","neither","neither","imgNWTK/KeepItSecret.jpg","imgNWTK/FindOutNow.jpg","info","eq","3.48","","28","2","2","106","null","imgNWTK/FindOutNow.jpg","imgNWTK/KeepItSecret.jpg","imgNWTK/FindOutNow.jpg","NaN","NaN","","",""
"2188","","","bandit-task-exp6","37","867877","0.0-6.0-0.13","female","20","Chian","74637","26180","neither","neither","imgNWTK/KeepItSecret.jpg","imgNWTK/FindOutNow.jpg","info","eq","3.48","","29","2","1","0","null","imgNWTK/KeepItSecret.jpg","imgNWTK/FindOutNow.jpg","imgNWTK/FindOutNow.jpg","NaN","NaN","","",""
"1254","","","bandit-task-exp6","38","891080","0.0-6.0-0.14","female","20","Chian","74637","26180","neither","neither","imgNWTK/KeepItSecret.jpg","imgNWTK/FindOutNow.jpg","info","eq","3.48","","30","2","2","105","null","imgNWTK/KeepItSecret.jpg","imgNWTK/FindOutNow.jpg","imgNWTK/FindOutNow.jpg","NaN","NaN","","",""
"null","<p><b> Congratulations, you have finished this block. </b> </p><p>Please take a short break before moving onto the next block.</p><p>The next block will start after a 15 second break.</p><b>Remember, the point rewards are the same between blocks","","html-keyboard-response","39","906089","0.0-7.0","female","20","Chian","74637","26180","neither","neither","imgNWTK/KeepItSecret.jpg","imgNWTK/FindOutNow.jpg","info","eq","3.48","","","","","","","","","","","","null","",""
"1953","","","bandit-task-exp6","40","951955","0.0-8.0-0.0","female","20","Chian","74637","26180","neither","neither","imgNWTK/KeepItSecret.jpg","imgNWTK/FindOutNow.jpg","info","eq","3.48","","31","2","1","0","null","imgNWTK/FindOutNow.jpg","imgNWTK/KeepItSecret.jpg","imgNWTK/FindOutNow.jpg","NaN","NaN","","",""
"1930","","","bandit-task-exp6","41","977371","0.0-8.0-0.1","female","20","Chian","74637","26180","neither","neither","imgNWTK/KeepItSecret.jpg","imgNWTK/FindOutNow.jpg","info","eq","3.48","","32","1","2","0","null","imgNWTK/FindOutNow.jpg","imgNWTK/KeepItSecret.jpg","imgNWTK/KeepItSecret.jpg","NaN","NaN","","",""
"1251","","","bandit-task-exp6","42","1001989","0.0-8.0-0.2","female","20","Chian","74637","26180","neither","neither","imgNWTK/KeepItSecret.jpg","imgNWTK/FindOutNow.jpg","info","eq","3.48","","33","2","2","110","null","imgNWTK/FindOutNow.jpg","imgNWTK/KeepItSecret.jpg","imgNWTK/FindOutNow.jpg","NaN","NaN","","",""
"2592","","","bandit-task-exp6","43","1026729","0.0-8.0-0.3","female","20","Chian","74637","26180","neither","neither","imgNWTK/KeepItSecret.jpg","imgNWTK/FindOutNow.jpg","info","eq","3.48","","34","2","2","91","null","imgNWTK/KeepItSecret.jpg","imgNWTK/FindOutNow.jpg","imgNWTK/FindOutNow.jpg","NaN","NaN","","",""
"1577","","","bandit-task-exp6","44","1050451","0.0-8.0-0.4","female","20","Chian","74637","26180","neither","neither","imgNWTK/KeepItSecret.jpg","imgNWTK/FindOutNow.jpg","info","eq","3.48","","35","1","1","105","null","imgNWTK/FindOutNow.jpg","imgNWTK/KeepItSecret.jpg","imgNWTK/KeepItSecret.jpg","NaN","NaN","","",""
"1289","","","bandit-task-exp6","45","1083188","0.0-8.0-0.5","female","20","Chian","74637","26180","neither","neither","imgNWTK/KeepItSecret.jpg","imgNWTK/FindOutNow.jpg","info","eq","3.48","","36","2","2","92","null","imgNWTK/FindOutNow.jpg","imgNWTK/KeepItSecret.jpg","imgNWTK/FindOutNow.jpg","NaN","NaN","","",""
"1903","","","bandit-task-exp6","46","1108350","0.0-8.0-0.6","female","20","Chian","74637","26180","neither","neither","imgNWTK/KeepItSecret.jpg","imgNWTK/FindOutNow.jpg","info","eq","3.48","","37","1","2","0","null","imgNWTK/FindOutNow.jpg","imgNWTK/KeepItSecret.jpg","imgNWTK/KeepItSecret.jpg","NaN","NaN","","",""
"1893","","","bandit-task-exp6","47","1134773","0.0-8.0-0.7","female","20","Chian","74637","26180","neither","neither","imgNWTK/KeepItSecret.jpg","imgNWTK/FindOutNow.jpg","info","eq","3.48","","38","2","1","0","null","imgNWTK/KeepItSecret.jpg","imgNWTK/FindOutNow.jpg","imgNWTK/FindOutNow.jpg","NaN","NaN","","",""
"5534","","","bandit-task-exp6","48","1162262","0.0-8.0-0.8","female","20","Chian","74637","26180","neither","neither","imgNWTK/KeepItSecret.jpg","imgNWTK/FindOutNow.jpg","info","eq","3.48","","39","2","1","0","null","imgNWTK/FindOutNow.jpg","imgNWTK/KeepItSecret.jpg","imgNWTK/FindOutNow.jpg","NaN","NaN","","",""
"1523","","","bandit-task-exp6","49","1186004","0.0-8.0-0.9","female","20","Chian","74637","26180","neither","neither","imgNWTK/KeepItSecret.jpg","imgNWTK/FindOutNow.jpg","info","eq","3.48","","40","2","1","0","null","imgNWTK/FindOutNow.jpg","imgNWTK/KeepItSecret.jpg","imgNWTK/FindOutNow.jpg","NaN","NaN","","",""
"1273","","","bandit-task-exp6","50","1208970","0.0-8.0-0.10","female","20","Chian","74637","26180","neither","neither","imgNWTK/KeepItSecret.jpg","imgNWTK/FindOutNow.jpg","info","eq","3.48","","41","2","2","104","null","imgNWTK/KeepItSecret.jpg","imgNWTK/FindOutNow.jpg","imgNWTK/FindOutNow.jpg","NaN","NaN","","",""
"1363","","","bandit-task-exp6","51","1232326","0.0-8.0-0.11","female","20","Chian","74637","26180","neither","neither","imgNWTK/KeepItSecret.jpg","imgNWTK/FindOutNow.jpg","info","eq","3.48","","42","1","1","102","null","imgNWTK/FindOutNow.jpg","imgNWTK/KeepItSecret.jpg","imgNWTK/KeepItSecret.jpg","NaN","NaN","","",""
"1459","","","bandit-task-exp6","52","1256508","0.0-8.0-0.12","female","20","Chian","74637","26180","neither","neither","imgNWTK/KeepItSecret.jpg","imgNWTK/FindOutNow.jpg","info","eq","3.48","","43","1","1","100","null","imgNWTK/KeepItSecret.jpg","imgNWTK/FindOutNow.jpg","imgNWTK/KeepItSecret.jpg","NaN","NaN","","",""
"2795","","","bandit-task-exp6","53","1281597","0.0-8.0-0.13","female","20","Chian","74637","26180","neither","neither","imgNWTK/KeepItSecret.jpg","imgNWTK/FindOutNow.jpg","info","eq","3.48","","44","1","2","0","null","imgNWTK/KeepItSecret.jpg","imgNWTK/FindOutNow.jpg","imgNWTK/KeepItSecret.jpg","NaN","NaN","","",""
"1098","","","bandit-task-exp6","54","1304716","0.0-8.0-0.14","female","20","Chian","74637","26180","neither","neither","imgNWTK/KeepItSecret.jpg","imgNWTK/FindOutNow.jpg","info","eq","3.48","","45","1","2","0","null","imgNWTK/FindOutNow.jpg","imgNWTK/KeepItSecret.jpg","imgNWTK/KeepItSecret.jpg","NaN","NaN","","",""
"null","<p><b> Congratulations, you have finished this block. </b> </p><p>Please take a short break before moving onto the next block.</p><p>The next block will start after a 15 second break.</p><b>Remember, the point rewards are the same between blocks","","html-keyboard-response","55","1319732","0.0-9.0","female","20","Chian","74637","26180","neither","neither","imgNWTK/KeepItSecret.jpg","imgNWTK/FindOutNow.jpg","info","eq","3.48","","","","","","","","","","","","null","",""
"25473","","","bandit-task-exp6","56","1374790","0.0-10.0-0.0","female","20","Chian","74637","26180","neither","neither","imgNWTK/KeepItSecret.jpg","imgNWTK/FindOutNow.jpg","info","eq","3.48","","46","1","1","110","null","imgNWTK/KeepItSecret.jpg","imgNWTK/FindOutNow.jpg","imgNWTK/KeepItSecret.jpg","102","92","","",""
"9730","","","bandit-task-exp6","57","1406536","0.0-10.0-0.1","female","20","Chian","74637","26180","neither","neither","imgNWTK/KeepItSecret.jpg","imgNWTK/FindOutNow.jpg","info","eq","3.48","","47","1","1","107","null","imgNWTK/FindOutNow.jpg","imgNWTK/KeepItSecret.jpg","imgNWTK/KeepItSecret.jpg","94","104","","",""
"7803","","","bandit-task-exp6","58","1436953","0.0-10.0-0.2","female","20","Chian","74637","26180","neither","neither","imgNWTK/KeepItSecret.jpg","imgNWTK/FindOutNow.jpg","info","eq","3.48","","48","2","1","0","null","imgNWTK/KeepItSecret.jpg","imgNWTK/FindOutNow.jpg","imgNWTK/FindOutNow.jpg","0","94","","",""
"7482","","","bandit-task-exp6","59","1468129","0.0-10.0-0.3","female","20","Chian","74637","26180","neither","neither","imgNWTK/KeepItSecret.jpg","imgNWTK/FindOutNow.jpg","info","eq","3.48","","49","1","1","106","null","imgNWTK/KeepItSecret.jpg","imgNWTK/FindOutNow.jpg","imgNWTK/KeepItSecret.jpg","104","94","","",""
"8032","","","bandit-task-exp6","60","1498278","0.0-10.0-0.4","female","20","Chian","74637","26180","neither","neither","imgNWTK/KeepItSecret.jpg","imgNWTK/FindOutNow.jpg","info","eq","3.48","","50","1","1","110","null","imgNWTK/KeepItSecret.jpg","imgNWTK/FindOutNow.jpg","imgNWTK/KeepItSecret.jpg","104","94","","",""
"8468","","","bandit-task-exp6","61","1529181","0.0-10.0-0.5","female","20","Chian","74637","26180","neither","neither","imgNWTK/KeepItSecret.jpg","imgNWTK/FindOutNow.jpg","info","eq","3.48","","51","1","2","0","null","imgNWTK/FindOutNow.jpg","imgNWTK/KeepItSecret.jpg","imgNWTK/KeepItSecret.jpg","94","104","","",""
"8052","","","bandit-task-exp6","62","1559527","0.0-10.0-0.6","female","20","Chian","74637","26180","neither","neither","imgNWTK/KeepItSecret.jpg","imgNWTK/FindOutNow.jpg","info","eq","3.48","","52","1","2","0","null","imgNWTK/FindOutNow.jpg","imgNWTK/KeepItSecret.jpg","imgNWTK/KeepItSecret.jpg","94","104","","",""
"8717","","","bandit-task-exp6","63","1590327","0.0-10.0-0.7","female","20","Chian","74637","26180","neither","neither","imgNWTK/KeepItSecret.jpg","imgNWTK/FindOutNow.jpg","info","eq","3.48","","53","1","1","106","null","imgNWTK/KeepItSecret.jpg","imgNWTK/FindOutNow.jpg","imgNWTK/KeepItSecret.jpg","104","94","","",""
"9580","","","bandit-task-exp6","64","1624882","0.0-10.0-0.8","female","20","Chian","74637","26180","neither","neither","imgNWTK/KeepItSecret.jpg","imgNWTK/FindOutNow.jpg","info","eq","3.48","","54","2","2","97","null","imgNWTK/FindOutNow.jpg","imgNWTK/KeepItSecret.jpg","imgNWTK/FindOutNow.jpg","94","104","","",""
"9406","","","bandit-task-exp6","65","1659064","0.0-10.0-0.9","female","20","Chian","74637","26180","neither","neither","imgNWTK/KeepItSecret.jpg","imgNWTK/FindOutNow.jpg","info","eq","3.48","","55","2","2","101","null","imgNWTK/KeepItSecret.jpg","imgNWTK/FindOutNow.jpg","imgNWTK/FindOutNow.jpg","104","94","","",""
"9371","","","bandit-task-exp6","66","1700298","0.0-10.0-0.10","female","20","Chian","74637","26180","neither","neither","imgNWTK/KeepItSecret.jpg","imgNWTK/FindOutNow.jpg","info","eq","3.48","","56","1","1","95","null","imgNWTK/FindOutNow.jpg","imgNWTK/KeepItSecret.jpg","imgNWTK/KeepItSecret.jpg","94","104","","",""
"7986","","","bandit-task-exp6","67","1730826","0.0-10.0-0.11","female","20","Chian","74637","26180","neither","neither","imgNWTK/KeepItSecret.jpg","imgNWTK/FindOutNow.jpg","info","eq","3.48","","57","1","1","92","null","imgNWTK/KeepItSecret.jpg","imgNWTK/FindOutNow.jpg","imgNWTK/KeepItSecret.jpg","104","94","","",""
"11363","","","bandit-task-exp6","68","1764304","0.0-10.0-0.12","female","20","Chian","74637","26180","neither","neither","imgNWTK/KeepItSecret.jpg","imgNWTK/FindOutNow.jpg","info","eq","3.48","","58","2","1","0","null","imgNWTK/KeepItSecret.jpg","imgNWTK/FindOutNow.jpg","imgNWTK/FindOutNow.jpg","104","94","","",""
"12595","","","bandit-task-exp6","69","1801633","0.0-10.0-0.13","female","20","Chian","74637","26180","neither","neither","imgNWTK/KeepItSecret.jpg","imgNWTK/FindOutNow.jpg","info","eq","3.48","","59","2","2","99","null","imgNWTK/FindOutNow.jpg","imgNWTK/KeepItSecret.jpg","imgNWTK/FindOutNow.jpg","94","104","","",""
"13678","","","bandit-task-exp6","70","1839248","0.0-10.0-0.14","female","20","Chian","74637","26180","neither","neither","imgNWTK/KeepItSecret.jpg","imgNWTK/FindOutNow.jpg","info","eq","3.48","","60","2","1","0","null","imgNWTK/FindOutNow.jpg","imgNWTK/KeepItSecret.jpg","imgNWTK/FindOutNow.jpg","94","104","","",""
"5393","<p> Congratulations, you have finished the main part of the experiment. </p><p>Before you finish, we have a few short questions about the options and outcomes you saw in the task.</p>","0","html-button-response","71","1844643","0.0-11.0","female","20","Chian","74637","26180","neither","neither","imgNWTK/KeepItSecret.jpg","imgNWTK/FindOutNow.jpg","info","eq","3.48","","","","","","","","","","","","","",""
"8878","<p><b>Now, imagine that you clicked on the below button for another 10 trials (this includes <i> BOTH WIN and NO-WIN trials</i>).</p> <img src= 'imgNWTK/KeepItSecret.jpg'></img></br></br> <p><b>Please type the reward (number of points) you would expect to receive on every trial.</br> Click start to begin.</p>","0","html-button-response","72","1853522","0.0-12.0","female","20","Chian","74637","26180","neither","neither","imgNWTK/KeepItSecret.jpg","imgNWTK/FindOutNow.jpg","info","eq","3.48","","","","","","","","","","","","","",""
"13049.899999976158","","","survey-number","73","1866578","0.0-13.0-0.0","female","20","Chian","74637","26180","neither","neither","imgNWTK/KeepItSecret.jpg","imgNWTK/FindOutNow.jpg","info","eq","3.48","{""undefined"":""104""}","","","","","","","","","","","","imgNWTK/KeepItSecret.jpg",""
"8743.699999928474","","","survey-number","74","1875326","0.0-13.0-0.1","female","20","Chian","74637","26180","neither","neither","imgNWTK/KeepItSecret.jpg","imgNWTK/FindOutNow.jpg","info","eq","3.48","{""undefined"":""103""}","","","","","","","","","","","","imgNWTK/KeepItSecret.jpg",""
"7742.400000095367","","","survey-number","75","1883073","0.0-13.0-0.2","female","20","Chian","74637","26180","neither","neither","imgNWTK/KeepItSecret.jpg","imgNWTK/FindOutNow.jpg","info","eq","3.48","{""undefined"":""105""}","","","","","","","","","","","","imgNWTK/KeepItSecret.jpg",""
"8421.300000071526","","","survey-number","76","1891498","0.0-13.0-0.3","female","20","Chian","74637","26180","neither","neither","imgNWTK/KeepItSecret.jpg","imgNWTK/FindOutNow.jpg","info","eq","3.48","{""undefined"":""106""}","","","","","","","","","","","","imgNWTK/KeepItSecret.jpg",""
"6011","","","survey-number","77","1897513","0.0-13.0-0.4","female","20","Chian","74637","26180","neither","neither","imgNWTK/KeepItSecret.jpg","imgNWTK/FindOutNow.jpg","info","eq","3.48","{""undefined"":""102""}","","","","","","","","","","","","imgNWTK/KeepItSecret.jpg",""
"4605.800000071526","","","survey-number","78","1902123","0.0-13.0-0.5","female","20","Chian","74637","26180","neither","neither","imgNWTK/KeepItSecret.jpg","imgNWTK/FindOutNow.jpg","info","eq","3.48","{""undefined"":""101""}","","","","","","","","","","","","imgNWTK/KeepItSecret.jpg",""
"5538.399999976158","","","survey-number","79","1907665","0.0-13.0-0.6","female","20","Chian","74637","26180","neither","neither","imgNWTK/KeepItSecret.jpg","imgNWTK/FindOutNow.jpg","info","eq","3.48","{""undefined"":""99""}","","","","","","","","","","","","imgNWTK/KeepItSecret.jpg",""
"4152.600000023842","","","survey-number","80","1911822","0.0-13.0-0.7","female","20","Chian","74637","26180","neither","neither","imgNWTK/KeepItSecret.jpg","imgNWTK/FindOutNow.jpg","info","eq","3.48","{""undefined"":""98""}","","","","","","","","","","","","imgNWTK/KeepItSecret.jpg",""
"3824.899999976158","","","survey-number","81","1915651","0.0-13.0-0.8","female","20","Chian","74637","26180","neither","neither","imgNWTK/KeepItSecret.jpg","imgNWTK/FindOutNow.jpg","info","eq","3.48","{""undefined"":""97""}","","","","","","","","","","","","imgNWTK/KeepItSecret.jpg",""
"3186.399999976158","","","survey-number","82","1918841","0.0-13.0-0.9","female","20","Chian","74637","26180","neither","neither","imgNWTK/KeepItSecret.jpg","imgNWTK/FindOutNow.jpg","info","eq","3.48","{""undefined"":""96""}","","","","","","","","","","","","imgNWTK/KeepItSecret.jpg",""
"1665","<p><b>Imagine that you clicked on the below button for another 10 trials (this includes <i> both WIN and NO-WIN trials</i>).</p> <img src= 'imgNWTK/FindOutNow.jpg'></img></br></br> <p><b>Please type the reward (number of points) you would expect to receive on every trial.</br> Click start to begin.</p>","0","html-button-response","83","1920509","0.0-14.0","female","20","Chian","74637","26180","neither","neither","imgNWTK/KeepItSecret.jpg","imgNWTK/FindOutNow.jpg","info","eq","3.48","","","","","","","","","","","","","",""
"8436.5","","","survey-number","84","1928950","0.0-15.0-0.0","female","20","Chian","74637","26180","neither","neither","imgNWTK/KeepItSecret.jpg","imgNWTK/FindOutNow.jpg","info","eq","3.48","{""undefined"":""94""}","","","","","","","","","","","","imgNWTK/FindOutNow.jpg",""
"4931.700000047684","","","survey-number","85","1933887","0.0-15.0-0.1","female","20","Chian","74637","26180","neither","neither","imgNWTK/KeepItSecret.jpg","imgNWTK/FindOutNow.jpg","info","eq","3.48","{""undefined"":""95""}","","","","","","","","","","","","imgNWTK/FindOutNow.jpg",""
"4022.6999999284744","","","survey-number","86","1937913","0.0-15.0-0.2","female","20","Chian","74637","26180","neither","neither","imgNWTK/KeepItSecret.jpg","imgNWTK/FindOutNow.jpg","info","eq","3.48","{""undefined"":""96""}","","","","","","","","","","","","imgNWTK/FindOutNow.jpg",""
"5297.399999976158","","","survey-number","87","1943214","0.0-15.0-0.3","female","20","Chian","74637","26180","neither","neither","imgNWTK/KeepItSecret.jpg","imgNWTK/FindOutNow.jpg","info","eq","3.48","{""undefined"":""97""}","","","","","","","","","","","","imgNWTK/FindOutNow.jpg",""
"2596.100000023842","","","survey-number","88","1945814","0.0-15.0-0.4","female","20","Chian","74637","26180","neither","neither","imgNWTK/KeepItSecret.jpg","imgNWTK/FindOutNow.jpg","info","eq","3.48","{""undefined"":""98""}","","","","","","","","","","","","imgNWTK/FindOutNow.jpg",""
"2664.899999976158","","","survey-number","89","1948481","0.0-15.0-0.5","female","20","Chian","74637","26180","neither","neither","imgNWTK/KeepItSecret.jpg","imgNWTK/FindOutNow.jpg","info","eq","3.48","{""undefined"":""99""}","","","","","","","","","","","","imgNWTK/FindOutNow.jpg",""
"3185.7999999523163","","","survey-number","90","1951670","0.0-15.0-0.6","female","20","Chian","74637","26180","neither","neither","imgNWTK/KeepItSecret.jpg","imgNWTK/FindOutNow.jpg","info","eq","3.48","{""undefined"":""100""}","","","","","","","","","","","","imgNWTK/FindOutNow.jpg",""
"3577.100000023842","","","survey-number","91","1955251","0.0-15.0-0.7","female","20","Chian","74637","26180","neither","neither","imgNWTK/KeepItSecret.jpg","imgNWTK/FindOutNow.jpg","info","eq","3.48","{""undefined"":""101""}","","","","","","","","","","","","imgNWTK/FindOutNow.jpg",""
"3387.5","","","survey-number","92","1958642","0.0-15.0-0.8","female","20","Chian","74637","26180","neither","neither","imgNWTK/KeepItSecret.jpg","imgNWTK/FindOutNow.jpg","info","eq","3.48","{""undefined"":""102""}","","","","","","","","","","","","imgNWTK/FindOutNow.jpg",""
"3267.100000023842","","","survey-number","93","1961913","0.0-15.0-0.9","female","20","Chian","74637","26180","neither","neither","imgNWTK/KeepItSecret.jpg","imgNWTK/FindOutNow.jpg","info","eq","3.48","{""undefined"":""103""}","","","","","","","","","","","","imgNWTK/FindOutNow.jpg",""
"56649.10000002384","","","survey-number","94","2018571","0.0-16.0","female","20","Chian","74637","26180","neither","neither","imgNWTK/KeepItSecret.jpg","imgNWTK/FindOutNow.jpg","info","eq","3.48","{""undefined"":""97""}","","","","","","","","","","","","","imgNWTK/FindOutNow.jpg"
"32347.5","","","survey-number","95","2050923","0.0-17.0","female","20","Chian","74637","26180","neither","neither","imgNWTK/KeepItSecret.jpg","imgNWTK/FindOutNow.jpg","info","eq","3.48","{""undefined"":""101""}","","","","","","","","","","","","","imgNWTK/KeepItSecret.jpg"
"21555","<p style=""text-align:left;"">Great! We are almost at the end of the study... (Please do not close the browser window yet.)</p><p> Your final points balance is 3484, which equals to a bonus payment of $3.48. Please collect your payment from Mathews Building Room 721 (Mon-Fri 9am-5pm); please email amy.x.li@unsw.edu.au at least 24 hours prior to collection so that this is ready for you.</p><p style=""text-align:left;"">To view the debriefing form, please click <a href=""./imgNWTK/debrief_3205.pdf"" target=""_blank"">here</a> to download a copy.</p><p style=""text-align:left;"">Then, <b>please click the below button</b> to confirm that you have received your debrief and to complete the study. Upon clicking ""Finish!"", your SONA credit will be automatically assigned.</p>","0","html-button-response","96","2072481","0.0-18.0","female","20","Chian","74637","26180","neither","neither","imgNWTK/KeepItSecret.jpg","imgNWTK/FindOutNow.jpg","info","eq","3.48","","","","","","","","","","","","","",""
