"rt","stimulus","button_pressed","trial_type","trial_index","time_elapsed","internal_node_id","gender","age","language","PID","sona_id","subStim","optStim","stim1","stim2","infoCond","optimCond","bonus","responses","banditTrial","choice","cue","feedback","estimateData","leftOption","rightOption","choiceName","leftInput","rightInput","key_press","postQ","singleEst"
"13029","<p>Thank you for signing up to participate in SONA Study 465! <br> During this study, please focus on the experiment and refrain from activities such as:</p>- <b>Switching to other tabs on your browser (this will be monitored via the experiment)</br> - Using your mobile phone/cell phone</br> - Communicating with others</br></br></b><p>This way, you are helping to provide data that is useful for psychological research. We thank you for your cooperation!</p>","0","html-button-response","0","13033","0.0-0.0","female","18","Australia","9579","24853","imgNWTK/triangle.png","imgNWTK/square.png","imgNWTK/triangle.png","imgNWTK/square.png","noninfo","sub","3.76","","","","","","","","","","","","","",""
"5080","<p>Welcome to the experiment!</p><p>You will now read some instructions about the task. Press the 'Next' button to continue. </p>","0","html-button-response","1","18115","0.0-1.0","female","18","Australia","9579","24853","imgNWTK/triangle.png","imgNWTK/square.png","imgNWTK/triangle.png","imgNWTK/square.png","noninfo","sub","3.76","","","","","","","","","","","","","",""
"12064","<p> On each trial throughout the experiment you will choose between two options, </br>a <b>Black Square </b> and <b> Black Triangle </b>, as seen below.</p><div><div style= 'float: left; width: 300px; margin: 10px 10px;'><img src= 'imgNWTK/square.png'></img></div><div style= 'float: right; width: 300px; margin: 10px 10px;'><img src= 'imgNWTK/triangle.png'></img></div></div><br/><br/><br/><br/><br/><br/><br/><br/><br/><br/><br/><p>Each option results in winning points or receiving 0 points.</br>There is a 50% chance of either winning or receiving 0 points.</p><p>You won't receive the outcome until after a <b> 20 second delay</b>.</p>","0","html-button-response","2","30183","0.0-2.0-0.0","female","18","Australia","9579","24853","imgNWTK/triangle.png","imgNWTK/square.png","imgNWTK/triangle.png","imgNWTK/square.png","noninfo","sub","3.76","","","","","","","","","","","","","",""
"20998","<img src= 'imgNWTK/NonInfoDiagram.png'></img><p>As seen above, whether you choose the square or triangle, you will receive a coloured circle after the choice. </p> <p>This circle will be on screen for 20 seconds until you win points or receive 0 points.</p><p>The coloured circle depends on which option you chose. </br> In the above example, choosing a triangle leads to a green circle and choosing the square leads to a red circle.</p>Please note: the circles in your task will be different to the above colours.</br></br>","0","html-button-response","3","51183","0.0-2.0-1.0","female","18","Australia","9579","24853","imgNWTK/triangle.png","imgNWTK/square.png","imgNWTK/triangle.png","imgNWTK/square.png","noninfo","sub","3.76","","","","","","","","","","","","","",""
"11580","<img src= 'cues/winTrials_noInfo.png' width = '1200'></img><p>To reiterate, 50% of the outcomes of each option will be WIN TRIALS, and the other 50% will be NO-WIN TRIALS.","0","html-button-response","4","62766","0.0-2.0-2.0","female","18","Australia","9579","24853","imgNWTK/triangle.png","imgNWTK/square.png","imgNWTK/triangle.png","imgNWTK/square.png","noninfo","sub","3.76","","","","","","","","","","","","","",""
"16847","<p> There will be <b>four blocks</b> in the experiment.</br>You will be given a short 15 second break between each block.</p><p><b>The points and the options will remain the same between the blocks.</b></p>The blocks are there just to give you a small break.</br></br></br></br><p>The points you earn in the task are also equal to <b> actual money</b>.</br> <b>1000 points is equal to $1 AUD</b></p><p>This is the rate you will be paid at the experiment's end.","0","html-button-response","5","79616","0.0-2.0-3.0","female","18","Australia","9579","24853","imgNWTK/triangle.png","imgNWTK/square.png","imgNWTK/triangle.png","imgNWTK/square.png","noninfo","sub","3.76","","","","","","","","","","","","","",""
"20177","","","survey-multi-choice","6","99801","0.0-2.0-4.0","female","18","Australia","9579","24853","imgNWTK/triangle.png","imgNWTK/square.png","imgNWTK/triangle.png","imgNWTK/square.png","noninfo","sub","3.76","{""Q0"":""20 Seconds"",""Q1"":""True"",""Q2"":""Equally""}","","","","","","","","","","","","",""
"5310","<p> Well done, all your answers were correct! <br> The experiment is about to start now. <br/> Click start to continue, or email your researcher <b>(amy.x.li@unsw.edu.au)</b> if you have any questions before starting.","0","html-button-response","7","105115","0.0-3.0","female","18","Australia","9579","24853","imgNWTK/triangle.png","imgNWTK/square.png","imgNWTK/triangle.png","imgNWTK/square.png","noninfo","sub","3.76","","","","","","","","","","","","","",""
"2957","","","bandit-task-exp6","8","114814","0.0-4.0-0.0","female","18","Australia","9579","24853","imgNWTK/triangle.png","imgNWTK/square.png","imgNWTK/triangle.png","imgNWTK/square.png","noninfo","sub","3.76","","1","1","1","128","null","imgNWTK/square.png","imgNWTK/triangle.png","imgNWTK/triangle.png","NaN","NaN","","",""
"1794","","","bandit-task-exp6","9","119699","0.0-4.0-0.1","female","18","Australia","9579","24853","imgNWTK/triangle.png","imgNWTK/square.png","imgNWTK/triangle.png","imgNWTK/square.png","noninfo","sub","3.76","","2","2","1","0","null","imgNWTK/square.png","imgNWTK/triangle.png","imgNWTK/square.png","NaN","NaN","","",""
"759","","","bandit-task-exp6","10","123681","0.0-4.0-0.2","female","18","Australia","9579","24853","imgNWTK/triangle.png","imgNWTK/square.png","imgNWTK/triangle.png","imgNWTK/square.png","noninfo","sub","3.76","","3","1","1","125","null","imgNWTK/square.png","imgNWTK/triangle.png","imgNWTK/triangle.png","NaN","NaN","","",""
"1345","","","bandit-task-exp6","11","127948","0.0-4.0-0.3","female","18","Australia","9579","24853","imgNWTK/triangle.png","imgNWTK/square.png","imgNWTK/triangle.png","imgNWTK/square.png","noninfo","sub","3.76","","4","2","2","88","null","imgNWTK/triangle.png","imgNWTK/square.png","imgNWTK/square.png","NaN","NaN","","",""
"945","","","bandit-task-exp6","12","131648","0.0-4.0-0.4","female","18","Australia","9579","24853","imgNWTK/triangle.png","imgNWTK/square.png","imgNWTK/triangle.png","imgNWTK/square.png","noninfo","sub","3.76","","5","1","2","0","null","imgNWTK/triangle.png","imgNWTK/square.png","imgNWTK/triangle.png","NaN","NaN","","",""
"662","","","bandit-task-exp6","13","135099","0.0-4.0-0.5","female","18","Australia","9579","24853","imgNWTK/triangle.png","imgNWTK/square.png","imgNWTK/triangle.png","imgNWTK/square.png","noninfo","sub","3.76","","6","1","1","123","null","imgNWTK/triangle.png","imgNWTK/square.png","imgNWTK/triangle.png","NaN","NaN","","",""
"928","","","bandit-task-exp6","14","139232","0.0-4.0-0.6","female","18","Australia","9579","24853","imgNWTK/triangle.png","imgNWTK/square.png","imgNWTK/triangle.png","imgNWTK/square.png","noninfo","sub","3.76","","7","2","1","0","null","imgNWTK/square.png","imgNWTK/triangle.png","imgNWTK/square.png","NaN","NaN","","",""
"744","","","bandit-task-exp6","15","143198","0.0-4.0-0.7","female","18","Australia","9579","24853","imgNWTK/triangle.png","imgNWTK/square.png","imgNWTK/triangle.png","imgNWTK/square.png","noninfo","sub","3.76","","8","1","2","0","null","imgNWTK/square.png","imgNWTK/triangle.png","imgNWTK/triangle.png","NaN","NaN","","",""
"845","","","bandit-task-exp6","16","146798","0.0-4.0-0.8","female","18","Australia","9579","24853","imgNWTK/triangle.png","imgNWTK/square.png","imgNWTK/triangle.png","imgNWTK/square.png","noninfo","sub","3.76","","9","1","1","115","null","imgNWTK/square.png","imgNWTK/triangle.png","imgNWTK/triangle.png","NaN","NaN","","",""
"644","","","bandit-task-exp6","17","150080","0.0-4.0-0.9","female","18","Australia","9579","24853","imgNWTK/triangle.png","imgNWTK/square.png","imgNWTK/triangle.png","imgNWTK/square.png","noninfo","sub","3.76","","10","2","1","0","null","imgNWTK/square.png","imgNWTK/triangle.png","imgNWTK/square.png","NaN","NaN","","",""
"880","","","bandit-task-exp6","18","153530","0.0-4.0-0.10","female","18","Australia","9579","24853","imgNWTK/triangle.png","imgNWTK/square.png","imgNWTK/triangle.png","imgNWTK/square.png","noninfo","sub","3.76","","11","2","2","84","null","imgNWTK/triangle.png","imgNWTK/square.png","imgNWTK/square.png","NaN","NaN","","",""
"614","","","bandit-task-exp6","19","156731","0.0-4.0-0.11","female","18","Australia","9579","24853","imgNWTK/triangle.png","imgNWTK/square.png","imgNWTK/triangle.png","imgNWTK/square.png","noninfo","sub","3.76","","12","1","1","123","null","imgNWTK/triangle.png","imgNWTK/square.png","imgNWTK/triangle.png","NaN","NaN","","",""
"645","","","bandit-task-exp6","20","159948","0.0-4.0-0.12","female","18","Australia","9579","24853","imgNWTK/triangle.png","imgNWTK/square.png","imgNWTK/triangle.png","imgNWTK/square.png","noninfo","sub","3.76","","13","1","1","110","null","imgNWTK/square.png","imgNWTK/triangle.png","imgNWTK/triangle.png","NaN","NaN","","",""
"580","","","bandit-task-exp6","21","163148","0.0-4.0-0.13","female","18","Australia","9579","24853","imgNWTK/triangle.png","imgNWTK/square.png","imgNWTK/triangle.png","imgNWTK/square.png","noninfo","sub","3.76","","14","1","2","0","null","imgNWTK/square.png","imgNWTK/triangle.png","imgNWTK/triangle.png","NaN","NaN","","",""
"829","","","bandit-task-exp6","22","166598","0.0-4.0-0.14","female","18","Australia","9579","24853","imgNWTK/triangle.png","imgNWTK/square.png","imgNWTK/triangle.png","imgNWTK/square.png","noninfo","sub","3.76","","15","1","1","112","null","imgNWTK/triangle.png","imgNWTK/square.png","imgNWTK/triangle.png","NaN","NaN","","",""
"null","<p><b> Congratulations, you have finished this block. </b> </p><p>Please take a short break before moving onto the next block.</p><p>The next block will start after a 15 second break.</p><b>Remember, the point rewards are the same between blocks","","html-keyboard-response","23","181603","0.0-5.0","female","18","Australia","9579","24853","imgNWTK/triangle.png","imgNWTK/square.png","imgNWTK/triangle.png","imgNWTK/square.png","noninfo","sub","3.76","","","","","","","","","","","","null","",""
"921","","","bandit-task-exp6","24","185597","0.0-6.0-0.0","female","18","Australia","9579","24853","imgNWTK/triangle.png","imgNWTK/square.png","imgNWTK/triangle.png","imgNWTK/square.png","noninfo","sub","3.76","","16","1","1","110","null","imgNWTK/square.png","imgNWTK/triangle.png","imgNWTK/triangle.png","NaN","NaN","","",""
"695","","","bandit-task-exp6","25","188863","0.0-6.0-0.1","female","18","Australia","9579","24853","imgNWTK/triangle.png","imgNWTK/square.png","imgNWTK/triangle.png","imgNWTK/square.png","noninfo","sub","3.76","","17","2","1","0","null","imgNWTK/square.png","imgNWTK/triangle.png","imgNWTK/square.png","NaN","NaN","","",""
"645","","","bandit-task-exp6","26","191963","0.0-6.0-0.2","female","18","Australia","9579","24853","imgNWTK/triangle.png","imgNWTK/square.png","imgNWTK/triangle.png","imgNWTK/square.png","noninfo","sub","3.76","","18","2","2","84","null","imgNWTK/square.png","imgNWTK/triangle.png","imgNWTK/square.png","NaN","NaN","","",""
"795","","","bandit-task-exp6","27","195764","0.0-6.0-0.3","female","18","Australia","9579","24853","imgNWTK/triangle.png","imgNWTK/square.png","imgNWTK/triangle.png","imgNWTK/square.png","noninfo","sub","3.76","","19","2","1","0","null","imgNWTK/triangle.png","imgNWTK/square.png","imgNWTK/square.png","NaN","NaN","","",""
"462","","","bandit-task-exp6","28","198647","0.0-6.0-0.4","female","18","Australia","9579","24853","imgNWTK/triangle.png","imgNWTK/square.png","imgNWTK/triangle.png","imgNWTK/square.png","noninfo","sub","3.76","","20","2","1","0","null","imgNWTK/triangle.png","imgNWTK/square.png","imgNWTK/square.png","NaN","NaN","","",""
"512","","","bandit-task-exp6","29","201546","0.0-6.0-0.5","female","18","Australia","9579","24853","imgNWTK/triangle.png","imgNWTK/square.png","imgNWTK/triangle.png","imgNWTK/square.png","noninfo","sub","3.76","","21","1","1","121","null","imgNWTK/square.png","imgNWTK/triangle.png","imgNWTK/triangle.png","NaN","NaN","","",""
"612","","","bandit-task-exp6","30","204729","0.0-6.0-0.6","female","18","Australia","9579","24853","imgNWTK/triangle.png","imgNWTK/square.png","imgNWTK/triangle.png","imgNWTK/square.png","noninfo","sub","3.76","","22","1","1","119","null","imgNWTK/triangle.png","imgNWTK/square.png","imgNWTK/triangle.png","NaN","NaN","","",""
"479","","","bandit-task-exp6","31","207646","0.0-6.0-0.7","female","18","Australia","9579","24853","imgNWTK/triangle.png","imgNWTK/square.png","imgNWTK/triangle.png","imgNWTK/square.png","noninfo","sub","3.76","","23","1","2","0","null","imgNWTK/triangle.png","imgNWTK/square.png","imgNWTK/triangle.png","NaN","NaN","","",""
"745","","","bandit-task-exp6","32","210764","0.0-6.0-0.8","female","18","Australia","9579","24853","imgNWTK/triangle.png","imgNWTK/square.png","imgNWTK/triangle.png","imgNWTK/square.png","noninfo","sub","3.76","","24","1","2","0","null","imgNWTK/square.png","imgNWTK/triangle.png","imgNWTK/triangle.png","NaN","NaN","","",""
"544","","","bandit-task-exp6","33","213680","0.0-6.0-0.9","female","18","Australia","9579","24853","imgNWTK/triangle.png","imgNWTK/square.png","imgNWTK/triangle.png","imgNWTK/square.png","noninfo","sub","3.76","","25","1","2","0","null","imgNWTK/triangle.png","imgNWTK/square.png","imgNWTK/triangle.png","NaN","NaN","","",""
"544","","","bandit-task-exp6","34","216562","0.0-6.0-0.10","female","18","Australia","9579","24853","imgNWTK/triangle.png","imgNWTK/square.png","imgNWTK/triangle.png","imgNWTK/square.png","noninfo","sub","3.76","","26","1","2","0","null","imgNWTK/square.png","imgNWTK/triangle.png","imgNWTK/triangle.png","NaN","NaN","","",""
"547","","","bandit-task-exp6","35","219496","0.0-6.0-0.11","female","18","Australia","9579","24853","imgNWTK/triangle.png","imgNWTK/square.png","imgNWTK/triangle.png","imgNWTK/square.png","noninfo","sub","3.76","","27","2","2","76","null","imgNWTK/square.png","imgNWTK/triangle.png","imgNWTK/square.png","NaN","NaN","","",""
"1180","","","bandit-task-exp6","36","223079","0.0-6.0-0.12","female","18","Australia","9579","24853","imgNWTK/triangle.png","imgNWTK/square.png","imgNWTK/triangle.png","imgNWTK/square.png","noninfo","sub","3.76","","28","1","1","128","null","imgNWTK/triangle.png","imgNWTK/square.png","imgNWTK/triangle.png","NaN","NaN","","",""
"430","","","bandit-task-exp6","37","225845","0.0-6.0-0.13","female","18","Australia","9579","24853","imgNWTK/triangle.png","imgNWTK/square.png","imgNWTK/triangle.png","imgNWTK/square.png","noninfo","sub","3.76","","29","1","2","0","null","imgNWTK/triangle.png","imgNWTK/square.png","imgNWTK/triangle.png","NaN","NaN","","",""
"396","","","bandit-task-exp6","38","228996","0.0-6.0-0.14","female","18","Australia","9579","24853","imgNWTK/triangle.png","imgNWTK/square.png","imgNWTK/triangle.png","imgNWTK/square.png","noninfo","sub","3.76","","30","1","2","0","null","imgNWTK/triangle.png","imgNWTK/square.png","imgNWTK/triangle.png","NaN","NaN","","",""
"null","<p><b> Congratulations, you have finished this block. </b> </p><p>Please take a short break before moving onto the next block.</p><p>The next block will start after a 15 second break.</p><b>Remember, the point rewards are the same between blocks","","html-keyboard-response","39","244001","0.0-7.0","female","18","Australia","9579","24853","imgNWTK/triangle.png","imgNWTK/square.png","imgNWTK/triangle.png","imgNWTK/square.png","noninfo","sub","3.76","","","","","","","","","","","","null","",""
"1290","","","bandit-task-exp6","40","247962","0.0-8.0-0.0","female","18","Australia","9579","24853","imgNWTK/triangle.png","imgNWTK/square.png","imgNWTK/triangle.png","imgNWTK/square.png","noninfo","sub","3.76","","31","2","2","83","null","imgNWTK/square.png","imgNWTK/triangle.png","imgNWTK/square.png","NaN","NaN","","",""
"663","","","bandit-task-exp6","41","251728","0.0-8.0-0.1","female","18","Australia","9579","24853","imgNWTK/triangle.png","imgNWTK/square.png","imgNWTK/triangle.png","imgNWTK/square.png","noninfo","sub","3.76","","32","2","2","73","null","imgNWTK/square.png","imgNWTK/triangle.png","imgNWTK/square.png","NaN","NaN","","",""
"646","","","bandit-task-exp6","42","254712","0.0-8.0-0.2","female","18","Australia","9579","24853","imgNWTK/triangle.png","imgNWTK/square.png","imgNWTK/triangle.png","imgNWTK/square.png","noninfo","sub","3.76","","33","2","1","0","null","imgNWTK/square.png","imgNWTK/triangle.png","imgNWTK/square.png","NaN","NaN","","",""
"679","","","bandit-task-exp6","43","257745","0.0-8.0-0.3","female","18","Australia","9579","24853","imgNWTK/triangle.png","imgNWTK/square.png","imgNWTK/triangle.png","imgNWTK/square.png","noninfo","sub","3.76","","34","1","2","0","null","imgNWTK/triangle.png","imgNWTK/square.png","imgNWTK/triangle.png","NaN","NaN","","",""
"1530","","","bandit-task-exp6","44","261661","0.0-8.0-0.4","female","18","Australia","9579","24853","imgNWTK/triangle.png","imgNWTK/square.png","imgNWTK/triangle.png","imgNWTK/square.png","noninfo","sub","3.76","","35","2","2","74","null","imgNWTK/square.png","imgNWTK/triangle.png","imgNWTK/square.png","NaN","NaN","","",""
"1046","","","bandit-task-exp6","45","265112","0.0-8.0-0.5","female","18","Australia","9579","24853","imgNWTK/triangle.png","imgNWTK/square.png","imgNWTK/triangle.png","imgNWTK/square.png","noninfo","sub","3.76","","36","1","2","0","null","imgNWTK/triangle.png","imgNWTK/square.png","imgNWTK/triangle.png","NaN","NaN","","",""
"1562","","","bandit-task-exp6","46","270293","0.0-8.0-0.6","female","18","Australia","9579","24853","imgNWTK/triangle.png","imgNWTK/square.png","imgNWTK/triangle.png","imgNWTK/square.png","noninfo","sub","3.76","","37","1","1","117","null","imgNWTK/triangle.png","imgNWTK/square.png","imgNWTK/triangle.png","NaN","NaN","","",""
"679","","","bandit-task-exp6","47","274761","0.0-8.0-0.7","female","18","Australia","9579","24853","imgNWTK/triangle.png","imgNWTK/square.png","imgNWTK/triangle.png","imgNWTK/square.png","noninfo","sub","3.76","","38","1","1","120","null","imgNWTK/triangle.png","imgNWTK/square.png","imgNWTK/triangle.png","NaN","NaN","","",""
"612","","","bandit-task-exp6","48","279295","0.0-8.0-0.8","female","18","Australia","9579","24853","imgNWTK/triangle.png","imgNWTK/square.png","imgNWTK/triangle.png","imgNWTK/square.png","noninfo","sub","3.76","","39","1","2","0","null","imgNWTK/triangle.png","imgNWTK/square.png","imgNWTK/triangle.png","NaN","NaN","","",""
"1346","","","bandit-task-exp6","49","283478","0.0-8.0-0.9","female","18","Australia","9579","24853","imgNWTK/triangle.png","imgNWTK/square.png","imgNWTK/triangle.png","imgNWTK/square.png","noninfo","sub","3.76","","40","2","1","0","null","imgNWTK/square.png","imgNWTK/triangle.png","imgNWTK/square.png","NaN","NaN","","",""
"578","","","bandit-task-exp6","50","286510","0.0-8.0-0.10","female","18","Australia","9579","24853","imgNWTK/triangle.png","imgNWTK/square.png","imgNWTK/triangle.png","imgNWTK/square.png","noninfo","sub","3.76","","41","2","2","84","null","imgNWTK/square.png","imgNWTK/triangle.png","imgNWTK/square.png","NaN","NaN","","",""
"545","","","bandit-task-exp6","51","289695","0.0-8.0-0.11","female","18","Australia","9579","24853","imgNWTK/triangle.png","imgNWTK/square.png","imgNWTK/triangle.png","imgNWTK/square.png","noninfo","sub","3.76","","42","1","1","121","null","imgNWTK/triangle.png","imgNWTK/square.png","imgNWTK/triangle.png","NaN","NaN","","",""
"579","","","bandit-task-exp6","52","293111","0.0-8.0-0.12","female","18","Australia","9579","24853","imgNWTK/triangle.png","imgNWTK/square.png","imgNWTK/triangle.png","imgNWTK/square.png","noninfo","sub","3.76","","43","1","2","0","null","imgNWTK/triangle.png","imgNWTK/square.png","imgNWTK/triangle.png","NaN","NaN","","",""
"945","","","bandit-task-exp6","53","296511","0.0-8.0-0.13","female","18","Australia","9579","24853","imgNWTK/triangle.png","imgNWTK/square.png","imgNWTK/triangle.png","imgNWTK/square.png","noninfo","sub","3.76","","44","1","1","124","null","imgNWTK/triangle.png","imgNWTK/square.png","imgNWTK/triangle.png","NaN","NaN","","",""
"463","","","bandit-task-exp6","54","299362","0.0-8.0-0.14","female","18","Australia","9579","24853","imgNWTK/triangle.png","imgNWTK/square.png","imgNWTK/triangle.png","imgNWTK/square.png","noninfo","sub","3.76","","45","1","1","121","null","imgNWTK/triangle.png","imgNWTK/square.png","imgNWTK/triangle.png","NaN","NaN","","",""
"null","<p><b> Congratulations, you have finished this block. </b> </p><p>Please take a short break before moving onto the next block.</p><p>The next block will start after a 15 second break.</p><b>Remember, the point rewards are the same between blocks","","html-keyboard-response","55","314366","0.0-9.0","female","18","Australia","9579","24853","imgNWTK/triangle.png","imgNWTK/square.png","imgNWTK/triangle.png","imgNWTK/square.png","noninfo","sub","3.76","","","","","","","","","","","","null","",""
"19688","","","bandit-task-exp6","56","336943","0.0-10.0-0.0","female","18","Australia","9579","24853","imgNWTK/triangle.png","imgNWTK/square.png","imgNWTK/triangle.png","imgNWTK/square.png","noninfo","sub","3.76","","46","1","2","0","null","imgNWTK/square.png","imgNWTK/triangle.png","imgNWTK/triangle.png","79","123","","",""
"7743","","","bandit-task-exp6","57","347527","0.0-10.0-0.1","female","18","Australia","9579","24853","imgNWTK/triangle.png","imgNWTK/square.png","imgNWTK/triangle.png","imgNWTK/square.png","noninfo","sub","3.76","","47","1","1","121","null","imgNWTK/square.png","imgNWTK/triangle.png","imgNWTK/triangle.png","0","120","","",""
"7143","","","bandit-task-exp6","58","357426","0.0-10.0-0.2","female","18","Australia","9579","24853","imgNWTK/triangle.png","imgNWTK/square.png","imgNWTK/triangle.png","imgNWTK/square.png","noninfo","sub","3.76","","48","2","2","77","null","imgNWTK/square.png","imgNWTK/triangle.png","imgNWTK/square.png","0","0","","",""
"8610","","","bandit-task-exp6","59","369458","0.0-10.0-0.3","female","18","Australia","9579","24853","imgNWTK/triangle.png","imgNWTK/square.png","imgNWTK/triangle.png","imgNWTK/square.png","noninfo","sub","3.76","","49","2","2","77","null","imgNWTK/triangle.png","imgNWTK/square.png","imgNWTK/square.png","120","77","","",""
"4745","","","bandit-task-exp6","60","376959","0.0-10.0-0.4","female","18","Australia","9579","24853","imgNWTK/triangle.png","imgNWTK/square.png","imgNWTK/triangle.png","imgNWTK/square.png","noninfo","sub","3.76","","50","2","2","72","null","imgNWTK/square.png","imgNWTK/triangle.png","imgNWTK/square.png","0","123","","",""
"6029","","","bandit-task-exp6","61","385942","0.0-10.0-0.5","female","18","Australia","9579","24853","imgNWTK/triangle.png","imgNWTK/square.png","imgNWTK/triangle.png","imgNWTK/square.png","noninfo","sub","3.76","","51","1","1","130","null","imgNWTK/square.png","imgNWTK/triangle.png","imgNWTK/triangle.png","0","123","","",""
"14111","","","bandit-task-exp6","62","402492","0.0-10.0-0.6","female","18","Australia","9579","24853","imgNWTK/triangle.png","imgNWTK/square.png","imgNWTK/triangle.png","imgNWTK/square.png","noninfo","sub","3.76","","52","2","2","82","null","imgNWTK/square.png","imgNWTK/triangle.png","imgNWTK/square.png","70","125","","",""
"4627","","","bandit-task-exp6","63","409825","0.0-10.0-0.7","female","18","Australia","9579","24853","imgNWTK/triangle.png","imgNWTK/square.png","imgNWTK/triangle.png","imgNWTK/square.png","noninfo","sub","3.76","","53","2","2","74","null","imgNWTK/square.png","imgNWTK/triangle.png","imgNWTK/square.png","82","130","","",""
"8862","","","bandit-task-exp6","64","421308","0.0-10.0-0.8","female","18","Australia","9579","24853","imgNWTK/triangle.png","imgNWTK/square.png","imgNWTK/triangle.png","imgNWTK/square.png","noninfo","sub","3.76","","54","2","1","0","null","imgNWTK/square.png","imgNWTK/triangle.png","imgNWTK/square.png","71","132","","",""
"5993","","","bandit-task-exp6","65","430009","0.0-10.0-0.9","female","18","Australia","9579","24853","imgNWTK/triangle.png","imgNWTK/square.png","imgNWTK/triangle.png","imgNWTK/square.png","noninfo","sub","3.76","","55","1","2","0","null","imgNWTK/square.png","imgNWTK/triangle.png","imgNWTK/triangle.png","79","132","","",""
"5426","","","bandit-task-exp6","66","438325","0.0-10.0-0.10","female","18","Australia","9579","24853","imgNWTK/triangle.png","imgNWTK/square.png","imgNWTK/triangle.png","imgNWTK/square.png","noninfo","sub","3.76","","56","1","1","117","null","imgNWTK/square.png","imgNWTK/triangle.png","imgNWTK/triangle.png","79","128","","",""
"16376","","","bandit-task-exp6","67","457641","0.0-10.0-0.11","female","18","Australia","9579","24853","imgNWTK/triangle.png","imgNWTK/square.png","imgNWTK/triangle.png","imgNWTK/square.png","noninfo","sub","3.76","","57","1","1","128","null","imgNWTK/triangle.png","imgNWTK/square.png","imgNWTK/triangle.png","129","79","","",""
"8293","","","bandit-task-exp6","68","468840","0.0-10.0-0.12","female","18","Australia","9579","24853","imgNWTK/triangle.png","imgNWTK/square.png","imgNWTK/triangle.png","imgNWTK/square.png","noninfo","sub","3.76","","58","1","1","111","null","imgNWTK/square.png","imgNWTK/triangle.png","imgNWTK/triangle.png","80","127","","",""
"5111","","","bandit-task-exp6","69","476958","0.0-10.0-0.13","female","18","Australia","9579","24853","imgNWTK/triangle.png","imgNWTK/square.png","imgNWTK/triangle.png","imgNWTK/square.png","noninfo","sub","3.76","","59","2","2","86","null","imgNWTK/triangle.png","imgNWTK/square.png","imgNWTK/square.png","129","89","","",""
"7659","","","bandit-task-exp6","70","487091","0.0-10.0-0.14","female","18","Australia","9579","24853","imgNWTK/triangle.png","imgNWTK/square.png","imgNWTK/triangle.png","imgNWTK/square.png","noninfo","sub","3.76","","60","1","1","120","null","imgNWTK/triangle.png","imgNWTK/square.png","imgNWTK/triangle.png","127","78","","",""
"3896","<p> Congratulations, you have finished the main part of the experiment. </p><p>Before you finish, we have a few short questions about the options and outcomes you saw in the task.</p>","0","html-button-response","71","490990","0.0-11.0","female","18","Australia","9579","24853","imgNWTK/triangle.png","imgNWTK/square.png","imgNWTK/triangle.png","imgNWTK/square.png","noninfo","sub","3.76","","","","","","","","","","","","","",""
"9081","<p><b>Now, imagine that you clicked on the below button for another 10 trials (this includes <i> BOTH WIN and NO-WIN trials</i>).</p> <img src= 'imgNWTK/triangle.png'></img></br></br> <p><b>Please type the reward (number of points) you would expect to receive on every trial.</br> Click start to begin.</p>","0","html-button-response","72","500074","0.0-12.0","female","18","Australia","9579","24853","imgNWTK/triangle.png","imgNWTK/square.png","imgNWTK/triangle.png","imgNWTK/square.png","noninfo","sub","3.76","","","","","","","","","","","","","",""
"13144","","","survey-number","73","513223","0.0-13.0-0.0","female","18","Australia","9579","24853","imgNWTK/triangle.png","imgNWTK/square.png","imgNWTK/triangle.png","imgNWTK/square.png","noninfo","sub","3.76","{""undefined"":""122""}","","","","","","","","","","","","imgNWTK/triangle.png",""
"2528.2999999970198","","","survey-number","74","515755","0.0-13.0-0.1","female","18","Australia","9579","24853","imgNWTK/triangle.png","imgNWTK/square.png","imgNWTK/triangle.png","imgNWTK/square.png","noninfo","sub","3.76","{""undefined"":""0""}","","","","","","","","","","","","imgNWTK/triangle.png",""
"731.2000000029802","","","survey-number","75","516488","0.0-13.0-0.2","female","18","Australia","9579","24853","imgNWTK/triangle.png","imgNWTK/square.png","imgNWTK/triangle.png","imgNWTK/square.png","noninfo","sub","3.76","{""undefined"":""0""}","","","","","","","","","","","","imgNWTK/triangle.png",""
"732.5999999940395","","","survey-number","76","517223","0.0-13.0-0.3","female","18","Australia","9579","24853","imgNWTK/triangle.png","imgNWTK/square.png","imgNWTK/triangle.png","imgNWTK/square.png","noninfo","sub","3.76","{""undefined"":""0""}","","","","","","","","","","","","imgNWTK/triangle.png",""
"2895.0999999940395","","","survey-number","77","520122","0.0-13.0-0.4","female","18","Australia","9579","24853","imgNWTK/triangle.png","imgNWTK/square.png","imgNWTK/triangle.png","imgNWTK/square.png","noninfo","sub","3.76","{""undefined"":""129""}","","","","","","","","","","","","imgNWTK/triangle.png",""
"2146.3999999910593","","","survey-number","78","522271","0.0-13.0-0.5","female","18","Australia","9579","24853","imgNWTK/triangle.png","imgNWTK/square.png","imgNWTK/triangle.png","imgNWTK/square.png","noninfo","sub","3.76","{""undefined"":""132""}","","","","","","","","","","","","imgNWTK/triangle.png",""
"1681.5999999940395","","","survey-number","79","523955","0.0-13.0-0.6","female","18","Australia","9579","24853","imgNWTK/triangle.png","imgNWTK/square.png","imgNWTK/triangle.png","imgNWTK/square.png","noninfo","sub","3.76","{""undefined"":""124""}","","","","","","","","","","","","imgNWTK/triangle.png",""
"1648.6000000089407","","","survey-number","80","525606","0.0-13.0-0.7","female","18","Australia","9579","24853","imgNWTK/triangle.png","imgNWTK/square.png","imgNWTK/triangle.png","imgNWTK/square.png","noninfo","sub","3.76","{""undefined"":""121""}","","","","","","","","","","","","imgNWTK/triangle.png",""
"1780.2999999970198","","","survey-number","81","527388","0.0-13.0-0.8","female","18","Australia","9579","24853","imgNWTK/triangle.png","imgNWTK/square.png","imgNWTK/triangle.png","imgNWTK/square.png","noninfo","sub","3.76","{""undefined"":""0""}","","","","","","","","","","","","imgNWTK/triangle.png",""
"6697.5","","","survey-number","82","534087","0.0-13.0-0.9","female","18","Australia","9579","24853","imgNWTK/triangle.png","imgNWTK/square.png","imgNWTK/triangle.png","imgNWTK/square.png","noninfo","sub","3.76","{""undefined"":""131""}","","","","","","","","","","","","imgNWTK/triangle.png",""
"2233","<p><b>Imagine that you clicked on the below button for another 10 trials (this includes <i> both WIN and NO-WIN trials</i>).</p> <img src= 'imgNWTK/square.png'></img></br></br> <p><b>Please type the reward (number of points) you would expect to receive on every trial.</br> Click start to begin.</p>","0","html-button-response","83","536322","0.0-14.0","female","18","Australia","9579","24853","imgNWTK/triangle.png","imgNWTK/square.png","imgNWTK/triangle.png","imgNWTK/square.png","noninfo","sub","3.76","","","","","","","","","","","","","",""
"3894.6000000089407","","","survey-number","84","540221","0.0-15.0-0.0","female","18","Australia","9579","24853","imgNWTK/triangle.png","imgNWTK/square.png","imgNWTK/triangle.png","imgNWTK/square.png","noninfo","sub","3.76","{""undefined"":""0""}","","","","","","","","","","","","imgNWTK/square.png",""
"698","","","survey-number","85","540921","0.0-15.0-0.1","female","18","Australia","9579","24853","imgNWTK/triangle.png","imgNWTK/square.png","imgNWTK/triangle.png","imgNWTK/square.png","noninfo","sub","3.76","{""undefined"":""0""}","","","","","","","","","","","","imgNWTK/square.png",""
"514.2000000029802","","","survey-number","86","541438","0.0-15.0-0.2","female","18","Australia","9579","24853","imgNWTK/triangle.png","imgNWTK/square.png","imgNWTK/triangle.png","imgNWTK/square.png","noninfo","sub","3.76","{""undefined"":""0""}","","","","","","","","","","","","imgNWTK/square.png",""
"1814.5","","","survey-number","87","543254","0.0-15.0-0.3","female","18","Australia","9579","24853","imgNWTK/triangle.png","imgNWTK/square.png","imgNWTK/triangle.png","imgNWTK/square.png","noninfo","sub","3.76","{""undefined"":""77""}","","","","","","","","","","","","imgNWTK/square.png",""
"2982.1000000089407","","","survey-number","88","546238","0.0-15.0-0.4","female","18","Australia","9579","24853","imgNWTK/triangle.png","imgNWTK/square.png","imgNWTK/triangle.png","imgNWTK/square.png","noninfo","sub","3.76","{""undefined"":""82""}","","","","","","","","","","","","imgNWTK/square.png",""
"1746.9000000059605","","","survey-number","89","547987","0.0-15.0-0.5","female","18","Australia","9579","24853","imgNWTK/triangle.png","imgNWTK/square.png","imgNWTK/triangle.png","imgNWTK/square.png","noninfo","sub","3.76","{""undefined"":""79""}","","","","","","","","","","","","imgNWTK/square.png",""
"948.3000000119209","","","survey-number","90","548937","0.0-15.0-0.6","female","18","Australia","9579","24853","imgNWTK/triangle.png","imgNWTK/square.png","imgNWTK/triangle.png","imgNWTK/square.png","noninfo","sub","3.76","{""undefined"":""0""}","","","","","","","","","","","","imgNWTK/square.png",""
"864.6000000089407","","","survey-number","91","549804","0.0-15.0-0.7","female","18","Australia","9579","24853","imgNWTK/triangle.png","imgNWTK/square.png","imgNWTK/triangle.png","imgNWTK/square.png","noninfo","sub","3.76","{""undefined"":""0""}","","","","","","","","","","","","imgNWTK/square.png",""
"3281.199999988079","","","survey-number","92","553087","0.0-15.0-0.8","female","18","Australia","9579","24853","imgNWTK/triangle.png","imgNWTK/square.png","imgNWTK/triangle.png","imgNWTK/square.png","noninfo","sub","3.76","{""undefined"":""0""}","","","","","","","","","","","","imgNWTK/square.png",""
"2597.5999999940395","","","survey-number","93","555687","0.0-15.0-0.9","female","18","Australia","9579","24853","imgNWTK/triangle.png","imgNWTK/square.png","imgNWTK/triangle.png","imgNWTK/square.png","noninfo","sub","3.76","{""undefined"":""76""}","","","","","","","","","","","","imgNWTK/square.png",""
"37282.09999999404","","","survey-number","94","592970","0.0-16.0","female","18","Australia","9579","24853","imgNWTK/triangle.png","imgNWTK/square.png","imgNWTK/triangle.png","imgNWTK/square.png","noninfo","sub","3.76","{""undefined"":""77""}","","","","","","","","","","","","","imgNWTK/triangle.png"
"9014.09999999404","","","survey-number","95","601987","0.0-17.0","female","18","Australia","9579","24853","imgNWTK/triangle.png","imgNWTK/square.png","imgNWTK/triangle.png","imgNWTK/square.png","noninfo","sub","3.76","{""undefined"":""124""}","","","","","","","","","","","","","imgNWTK/square.png"
"64114","<p style=""text-align:left;"">Great! We are almost at the end of the study... (Please do not close the browser window yet.)</p><p> Your final points balance is 3758, which equals to a bonus payment of $3.76. Please collect your payment from Mathews Building Room 721 (Mon-Fri 9am-5pm); please email amy.x.li@unsw.edu.au at least 24 hours prior to collection so that this is ready for you.</p><p style=""text-align:left;"">To view the debriefing form, please click <a href=""./imgNWTK/debrief_3205.pdf"" target=""_blank"">here</a> to download a copy.</p><p style=""text-align:left;"">Then, <b>please click the below button</b> to confirm that you have received your debrief and to complete the study. Upon clicking ""Finish!"", your SONA credit will be automatically assigned.</p>","0","html-button-response","96","666104","0.0-18.0","female","18","Australia","9579","24853","imgNWTK/triangle.png","imgNWTK/square.png","imgNWTK/triangle.png","imgNWTK/square.png","noninfo","sub","3.76","","","","","","","","","","","","","",""
