"rt","stimulus","button_pressed","trial_type","trial_index","time_elapsed","internal_node_id","gender","age","language","PID","sona_id","subStim","optStim","stim1","stim2","infoCond","optimCond","bonus","responses","banditTrial","choice","cue","feedback","estimateData","leftOption","rightOption","choiceName","leftInput","rightInput","key_press","postQ","singleEst"
"30470","<p>Thank you for signing up to participate in SONA Study 465! <br> During this study, please focus on the experiment and refrain from activities such as:</p>- <b>Switching to other tabs on your browser (this will be monitored via the experiment)</br> - Using your mobile phone/cell phone</br> - Communicating with others</br></br></b><p>This way, you are helping to provide data that is useful for psychological research. We thank you for your cooperation!</p>","0","html-button-response","0","30471","0.0-0.0","female","19","Australia","24820","24803","neither","neither","imgNWTK/triangle.png","imgNWTK/square.png","noninfo","eq","2.46","","","","","","","","","","","","","",""
"1389","<p>Welcome to the experiment!</p><p>You will now read some instructions about the task. Press the 'Next' button to continue. </p>","0","html-button-response","1","31861","0.0-1.0","female","19","Australia","24820","24803","neither","neither","imgNWTK/triangle.png","imgNWTK/square.png","noninfo","eq","2.46","","","","","","","","","","","","","",""
"18357","<p> On each trial throughout the experiment you will choose between two options, </br>a <b>Black Square </b> and <b> Black Triangle </b>, as seen below.</p><div><div style= 'float: left; width: 300px; margin: 10px 10px;'><img src= 'imgNWTK/square.png'></img></div><div style= 'float: right; width: 300px; margin: 10px 10px;'><img src= 'imgNWTK/triangle.png'></img></div></div><br/><br/><br/><br/><br/><br/><br/><br/><br/><br/><br/><p>Each option results in winning points or receiving 0 points.</br>There is a 50% chance of either winning or receiving 0 points.</p><p>You won't receive the outcome until after a <b> 20 second delay</b>.</p>","0","html-button-response","2","50218","0.0-2.0-0.0","female","19","Australia","24820","24803","neither","neither","imgNWTK/triangle.png","imgNWTK/square.png","noninfo","eq","2.46","","","","","","","","","","","","","",""
"20584","<img src= 'imgNWTK/NonInfoDiagram.png'></img><p>As seen above, whether you choose the square or triangle, you will receive a coloured circle after the choice. </p> <p>This circle will be on screen for 20 seconds until you win points or receive 0 points.</p><p>The coloured circle depends on which option you chose. </br> In the above example, choosing a triangle leads to a green circle and choosing the square leads to a red circle.</p>Please note: the circles in your task will be different to the above colours.</br></br>","0","html-button-response","3","70803","0.0-2.0-1.0","female","19","Australia","24820","24803","neither","neither","imgNWTK/triangle.png","imgNWTK/square.png","noninfo","eq","2.46","","","","","","","","","","","","","",""
"21328","<img src= 'cues/winTrials_noInfo.png' width = '1200'></img><p>To reiterate, 50% of the outcomes of each option will be WIN TRIALS, and the other 50% will be NO-WIN TRIALS.","0","html-button-response","4","92132","0.0-2.0-2.0","female","19","Australia","24820","24803","neither","neither","imgNWTK/triangle.png","imgNWTK/square.png","noninfo","eq","2.46","","","","","","","","","","","","","",""
"8013","<p> There will be <b>four blocks</b> in the experiment.</br>You will be given a short 15 second break between each block.</p><p><b>The points and the options will remain the same between the blocks.</b></p>The blocks are there just to give you a small break.</br></br></br></br><p>The points you earn in the task are also equal to <b> actual money</b>.</br> <b>1000 points is equal to $1 AUD</b></p><p>This is the rate you will be paid at the experiment's end.","0","html-button-response","5","100146","0.0-2.0-3.0","female","19","Australia","24820","24803","neither","neither","imgNWTK/triangle.png","imgNWTK/square.png","noninfo","eq","2.46","","","","","","","","","","","","","",""
"20837","","","survey-multi-choice","6","120986","0.0-2.0-4.0","female","19","Australia","24820","24803","neither","neither","imgNWTK/triangle.png","imgNWTK/square.png","noninfo","eq","2.46","{""Q0"":""20 Seconds"",""Q1"":""True"",""Q2"":""Equally""}","","","","","","","","","","","","",""
"1908","<p> Well done, all your answers were correct! <br> The experiment is about to start now. <br/> Click start to continue, or email your researcher <b>(amy.x.li@unsw.edu.au)</b> if you have any questions before starting.","0","html-button-response","7","122896","0.0-3.0","female","19","Australia","24820","24803","neither","neither","imgNWTK/triangle.png","imgNWTK/square.png","noninfo","eq","2.46","","","","","","","","","","","","","",""
"1879","","","bandit-task-exp6","8","147227","0.0-4.0-0.0","female","19","Australia","24820","24803","neither","neither","imgNWTK/triangle.png","imgNWTK/square.png","noninfo","eq","2.46","","1","2","1","0","null","imgNWTK/square.png","imgNWTK/triangle.png","imgNWTK/square.png","NaN","NaN","","",""
"2380","","","bandit-task-exp6","9","172061","0.0-4.0-0.1","female","19","Australia","24820","24803","neither","neither","imgNWTK/triangle.png","imgNWTK/square.png","noninfo","eq","2.46","","2","1","2","0","null","imgNWTK/triangle.png","imgNWTK/square.png","imgNWTK/triangle.png","NaN","NaN","","",""
"16116","","","bandit-task-exp6","10","211544","0.0-4.0-0.2","female","19","Australia","24820","24803","neither","neither","imgNWTK/triangle.png","imgNWTK/square.png","noninfo","eq","2.46","","3","2","1","0","null","imgNWTK/triangle.png","imgNWTK/square.png","imgNWTK/square.png","NaN","NaN","","",""
"1314","","","bandit-task-exp6","11","235104","0.0-4.0-0.3","female","19","Australia","24820","24803","neither","neither","imgNWTK/triangle.png","imgNWTK/square.png","noninfo","eq","2.46","","4","2","1","0","null","imgNWTK/square.png","imgNWTK/triangle.png","imgNWTK/square.png","NaN","NaN","","",""
"843","","","bandit-task-exp6","12","259231","0.0-4.0-0.4","female","19","Australia","24820","24803","neither","neither","imgNWTK/triangle.png","imgNWTK/square.png","noninfo","eq","2.46","","5","1","2","0","null","imgNWTK/square.png","imgNWTK/triangle.png","imgNWTK/triangle.png","NaN","NaN","","",""
"23048","","","bandit-task-exp6","13","306735","0.0-4.0-0.5","female","19","Australia","24820","24803","neither","neither","imgNWTK/triangle.png","imgNWTK/square.png","noninfo","eq","2.46","","6","2","2","107","null","imgNWTK/square.png","imgNWTK/triangle.png","imgNWTK/square.png","NaN","NaN","","",""
"27994","","","bandit-task-exp6","14","360474","0.0-4.0-0.6","female","19","Australia","24820","24803","neither","neither","imgNWTK/triangle.png","imgNWTK/square.png","noninfo","eq","2.46","","7","2","2","95","null","imgNWTK/square.png","imgNWTK/triangle.png","imgNWTK/square.png","NaN","NaN","","",""
"26115","","","bandit-task-exp6","15","409497","0.0-4.0-0.7","female","19","Australia","24820","24803","neither","neither","imgNWTK/triangle.png","imgNWTK/square.png","noninfo","eq","2.46","","8","2","2","107","null","imgNWTK/square.png","imgNWTK/triangle.png","imgNWTK/square.png","NaN","NaN","","",""
"10224","","","bandit-task-exp6","16","442927","0.0-4.0-0.8","female","19","Australia","24820","24803","neither","neither","imgNWTK/triangle.png","imgNWTK/square.png","noninfo","eq","2.46","","9","1","1","100","null","imgNWTK/triangle.png","imgNWTK/square.png","imgNWTK/triangle.png","NaN","NaN","","",""
"2375","","","bandit-task-exp6","17","472223","0.0-4.0-0.9","female","19","Australia","24820","24803","neither","neither","imgNWTK/triangle.png","imgNWTK/square.png","noninfo","eq","2.46","","10","1","1","105","null","imgNWTK/triangle.png","imgNWTK/square.png","imgNWTK/triangle.png","NaN","NaN","","",""
"1615","","","bandit-task-exp6","18","497932","0.0-4.0-0.10","female","19","Australia","24820","24803","neither","neither","imgNWTK/triangle.png","imgNWTK/square.png","noninfo","eq","2.46","","11","1","1","98","null","imgNWTK/triangle.png","imgNWTK/square.png","imgNWTK/triangle.png","NaN","NaN","","",""
"815","","","bandit-task-exp6","19","521874","0.0-4.0-0.11","female","19","Australia","24820","24803","neither","neither","imgNWTK/triangle.png","imgNWTK/square.png","noninfo","eq","2.46","","12","1","2","0","null","imgNWTK/triangle.png","imgNWTK/square.png","imgNWTK/triangle.png","NaN","NaN","","",""
"1399","","","bandit-task-exp6","20","547120","0.0-4.0-0.12","female","19","Australia","24820","24803","neither","neither","imgNWTK/triangle.png","imgNWTK/square.png","noninfo","eq","2.46","","13","2","2","107","null","imgNWTK/square.png","imgNWTK/triangle.png","imgNWTK/square.png","NaN","NaN","","",""
"957","","","bandit-task-exp6","21","576862","0.0-4.0-0.13","female","19","Australia","24820","24803","neither","neither","imgNWTK/triangle.png","imgNWTK/square.png","noninfo","eq","2.46","","14","1","2","0","null","imgNWTK/triangle.png","imgNWTK/square.png","imgNWTK/triangle.png","NaN","NaN","","",""
"1221","","","bandit-task-exp6","22","600616","0.0-4.0-0.14","female","19","Australia","24820","24803","neither","neither","imgNWTK/triangle.png","imgNWTK/square.png","noninfo","eq","2.46","","15","2","1","0","null","imgNWTK/square.png","imgNWTK/triangle.png","imgNWTK/square.png","NaN","NaN","","",""
"null","<p><b> Congratulations, you have finished this block. </b> </p><p>Please take a short break before moving onto the next block.</p><p>The next block will start after a 15 second break.</p><b>Remember, the point rewards are the same between blocks","","html-keyboard-response","23","615618","0.0-5.0","female","19","Australia","24820","24803","neither","neither","imgNWTK/triangle.png","imgNWTK/square.png","noninfo","eq","2.46","","","","","","","","","","","","null","",""
"2928","","","bandit-task-exp6","24","645904","0.0-6.0-0.0","female","19","Australia","24820","24803","neither","neither","imgNWTK/triangle.png","imgNWTK/square.png","noninfo","eq","2.46","","16","1","2","0","null","imgNWTK/triangle.png","imgNWTK/square.png","imgNWTK/triangle.png","NaN","NaN","","",""
"1597","","","bandit-task-exp6","25","669562","0.0-6.0-0.1","female","19","Australia","24820","24803","neither","neither","imgNWTK/triangle.png","imgNWTK/square.png","noninfo","eq","2.46","","17","2","1","0","null","imgNWTK/square.png","imgNWTK/triangle.png","imgNWTK/square.png","NaN","NaN","","",""
"1404","","","bandit-task-exp6","26","693223","0.0-6.0-0.2","female","19","Australia","24820","24803","neither","neither","imgNWTK/triangle.png","imgNWTK/square.png","noninfo","eq","2.46","","18","1","2","0","null","imgNWTK/square.png","imgNWTK/triangle.png","imgNWTK/triangle.png","NaN","NaN","","",""
"2461","","","bandit-task-exp6","27","718298","0.0-6.0-0.3","female","19","Australia","24820","24803","neither","neither","imgNWTK/triangle.png","imgNWTK/square.png","noninfo","eq","2.46","","19","2","2","107","null","imgNWTK/triangle.png","imgNWTK/square.png","imgNWTK/square.png","NaN","NaN","","",""
"3587","","","bandit-task-exp6","28","745712","0.0-6.0-0.4","female","19","Australia","24820","24803","neither","neither","imgNWTK/triangle.png","imgNWTK/square.png","noninfo","eq","2.46","","20","1","1","107","null","imgNWTK/triangle.png","imgNWTK/square.png","imgNWTK/triangle.png","NaN","NaN","","",""
"899","","","bandit-task-exp6","29","768559","0.0-6.0-0.5","female","19","Australia","24820","24803","neither","neither","imgNWTK/triangle.png","imgNWTK/square.png","noninfo","eq","2.46","","21","2","1","0","null","imgNWTK/square.png","imgNWTK/triangle.png","imgNWTK/square.png","NaN","NaN","","",""
"1351","","","bandit-task-exp6","30","791679","0.0-6.0-0.6","female","19","Australia","24820","24803","neither","neither","imgNWTK/triangle.png","imgNWTK/square.png","noninfo","eq","2.46","","22","2","2","110","null","imgNWTK/square.png","imgNWTK/triangle.png","imgNWTK/square.png","NaN","NaN","","",""
"1448","","","bandit-task-exp6","31","815059","0.0-6.0-0.7","female","19","Australia","24820","24803","neither","neither","imgNWTK/triangle.png","imgNWTK/square.png","noninfo","eq","2.46","","23","1","2","0","null","imgNWTK/triangle.png","imgNWTK/square.png","imgNWTK/triangle.png","NaN","NaN","","",""
"1242","","","bandit-task-exp6","32","838808","0.0-6.0-0.8","female","19","Australia","24820","24803","neither","neither","imgNWTK/triangle.png","imgNWTK/square.png","noninfo","eq","2.46","","24","2","2","102","null","imgNWTK/square.png","imgNWTK/triangle.png","imgNWTK/square.png","NaN","NaN","","",""
"2785","","","bandit-task-exp6","33","864397","0.0-6.0-0.9","female","19","Australia","24820","24803","neither","neither","imgNWTK/triangle.png","imgNWTK/square.png","noninfo","eq","2.46","","25","2","2","105","null","imgNWTK/triangle.png","imgNWTK/square.png","imgNWTK/square.png","NaN","NaN","","",""
"2065","","","bandit-task-exp6","34","888145","0.0-6.0-0.10","female","19","Australia","24820","24803","neither","neither","imgNWTK/triangle.png","imgNWTK/square.png","noninfo","eq","2.46","","26","1","2","0","null","imgNWTK/triangle.png","imgNWTK/square.png","imgNWTK/triangle.png","NaN","NaN","","",""
"1585","","","bandit-task-exp6","35","911411","0.0-6.0-0.11","female","19","Australia","24820","24803","neither","neither","imgNWTK/triangle.png","imgNWTK/square.png","noninfo","eq","2.46","","27","2","1","0","null","imgNWTK/square.png","imgNWTK/triangle.png","imgNWTK/square.png","NaN","NaN","","",""
"4166","","","bandit-task-exp6","36","937257","0.0-6.0-0.12","female","19","Australia","24820","24803","neither","neither","imgNWTK/triangle.png","imgNWTK/square.png","noninfo","eq","2.46","","28","1","2","0","null","imgNWTK/triangle.png","imgNWTK/square.png","imgNWTK/triangle.png","NaN","NaN","","",""
"1204","","","bandit-task-exp6","37","960477","0.0-6.0-0.13","female","19","Australia","24820","24803","neither","neither","imgNWTK/triangle.png","imgNWTK/square.png","noninfo","eq","2.46","","29","2","1","0","null","imgNWTK/square.png","imgNWTK/triangle.png","imgNWTK/square.png","NaN","NaN","","",""
"923","","","bandit-task-exp6","38","983630","0.0-6.0-0.14","female","19","Australia","24820","24803","neither","neither","imgNWTK/triangle.png","imgNWTK/square.png","noninfo","eq","2.46","","30","2","2","102","null","imgNWTK/square.png","imgNWTK/triangle.png","imgNWTK/square.png","NaN","NaN","","",""
"null","<p><b> Congratulations, you have finished this block. </b> </p><p>Please take a short break before moving onto the next block.</p><p>The next block will start after a 15 second break.</p><b>Remember, the point rewards are the same between blocks","","html-keyboard-response","39","998644","0.0-7.0","female","19","Australia","24820","24803","neither","neither","imgNWTK/triangle.png","imgNWTK/square.png","noninfo","eq","2.46","","","","","","","","","","","","null","",""
"31027","","","bandit-task-exp6","40","1052789","0.0-8.0-0.0","female","19","Australia","24820","24803","neither","neither","imgNWTK/triangle.png","imgNWTK/square.png","noninfo","eq","2.46","","31","1","2","0","null","imgNWTK/triangle.png","imgNWTK/square.png","imgNWTK/triangle.png","NaN","NaN","","",""
"1001","","","bandit-task-exp6","41","1075692","0.0-8.0-0.1","female","19","Australia","24820","24803","neither","neither","imgNWTK/triangle.png","imgNWTK/square.png","noninfo","eq","2.46","","32","2","1","0","null","imgNWTK/square.png","imgNWTK/triangle.png","imgNWTK/square.png","NaN","NaN","","",""
"752","","","bandit-task-exp6","42","1098353","0.0-8.0-0.2","female","19","Australia","24820","24803","neither","neither","imgNWTK/triangle.png","imgNWTK/square.png","noninfo","eq","2.46","","33","2","1","0","null","imgNWTK/square.png","imgNWTK/triangle.png","imgNWTK/square.png","NaN","NaN","","",""
"869","","","bandit-task-exp6","43","1123931","0.0-8.0-0.3","female","19","Australia","24820","24803","neither","neither","imgNWTK/triangle.png","imgNWTK/square.png","noninfo","eq","2.46","","34","2","2","107","null","imgNWTK/square.png","imgNWTK/triangle.png","imgNWTK/square.png","NaN","NaN","","",""
"1923","","","bandit-task-exp6","44","1150189","0.0-8.0-0.4","female","19","Australia","24820","24803","neither","neither","imgNWTK/triangle.png","imgNWTK/square.png","noninfo","eq","2.46","","35","1","1","103","null","imgNWTK/triangle.png","imgNWTK/square.png","imgNWTK/triangle.png","NaN","NaN","","",""
"1009","","","bandit-task-exp6","45","1173057","0.0-8.0-0.5","female","19","Australia","24820","24803","neither","neither","imgNWTK/triangle.png","imgNWTK/square.png","noninfo","eq","2.46","","36","2","2","91","null","imgNWTK/square.png","imgNWTK/triangle.png","imgNWTK/square.png","NaN","NaN","","",""
"1333","","","bandit-task-exp6","46","1196166","0.0-8.0-0.6","female","19","Australia","24820","24803","neither","neither","imgNWTK/triangle.png","imgNWTK/square.png","noninfo","eq","2.46","","37","1","2","0","null","imgNWTK/triangle.png","imgNWTK/square.png","imgNWTK/triangle.png","NaN","NaN","","",""
"774","","","bandit-task-exp6","47","1219433","0.0-8.0-0.7","female","19","Australia","24820","24803","neither","neither","imgNWTK/triangle.png","imgNWTK/square.png","noninfo","eq","2.46","","38","2","1","0","null","imgNWTK/square.png","imgNWTK/triangle.png","imgNWTK/square.png","NaN","NaN","","",""
"6111","","","bandit-task-exp6","48","1247414","0.0-8.0-0.8","female","19","Australia","24820","24803","neither","neither","imgNWTK/triangle.png","imgNWTK/square.png","noninfo","eq","2.46","","39","1","1","108","null","imgNWTK/triangle.png","imgNWTK/square.png","imgNWTK/triangle.png","NaN","NaN","","",""
"868","","","bandit-task-exp6","49","1271822","0.0-8.0-0.9","female","19","Australia","24820","24803","neither","neither","imgNWTK/triangle.png","imgNWTK/square.png","noninfo","eq","2.46","","40","1","1","94","null","imgNWTK/triangle.png","imgNWTK/square.png","imgNWTK/triangle.png","NaN","NaN","","",""
"3354","","","bandit-task-exp6","50","1299964","0.0-8.0-0.10","female","19","Australia","24820","24803","neither","neither","imgNWTK/triangle.png","imgNWTK/square.png","noninfo","eq","2.46","","41","1","2","0","null","imgNWTK/triangle.png","imgNWTK/square.png","imgNWTK/triangle.png","NaN","NaN","","",""
"789","","","bandit-task-exp6","51","1323925","0.0-8.0-0.11","female","19","Australia","24820","24803","neither","neither","imgNWTK/triangle.png","imgNWTK/square.png","noninfo","eq","2.46","","42","2","1","0","null","imgNWTK/triangle.png","imgNWTK/square.png","imgNWTK/square.png","NaN","NaN","","",""
"8963","","","bandit-task-exp6","52","1357162","0.0-8.0-0.12","female","19","Australia","24820","24803","neither","neither","imgNWTK/triangle.png","imgNWTK/square.png","noninfo","eq","2.46","","43","1","2","0","null","imgNWTK/triangle.png","imgNWTK/square.png","imgNWTK/triangle.png","NaN","NaN","","",""
"1152","","","bandit-task-exp6","53","1382303","0.0-8.0-0.13","female","19","Australia","24820","24803","neither","neither","imgNWTK/triangle.png","imgNWTK/square.png","noninfo","eq","2.46","","44","2","2","91","null","imgNWTK/square.png","imgNWTK/triangle.png","imgNWTK/square.png","NaN","NaN","","",""
"840","","","bandit-task-exp6","54","1405172","0.0-8.0-0.14","female","19","Australia","24820","24803","neither","neither","imgNWTK/triangle.png","imgNWTK/square.png","noninfo","eq","2.46","","45","1","2","0","null","imgNWTK/triangle.png","imgNWTK/square.png","imgNWTK/triangle.png","NaN","NaN","","",""
"null","<p><b> Congratulations, you have finished this block. </b> </p><p>Please take a short break before moving onto the next block.</p><p>The next block will start after a 15 second break.</p><b>Remember, the point rewards are the same between blocks","","html-keyboard-response","55","1420185","0.0-9.0","female","19","Australia","24820","24803","neither","neither","imgNWTK/triangle.png","imgNWTK/square.png","noninfo","eq","2.46","","","","","","","","","","","","null","",""
"32753","","","bandit-task-exp6","56","1475233","0.0-10.0-0.0","female","19","Australia","24820","24803","neither","neither","imgNWTK/triangle.png","imgNWTK/square.png","noninfo","eq","2.46","","46","1","1","102","null","imgNWTK/triangle.png","imgNWTK/square.png","imgNWTK/triangle.png","96","106","","",""
"24001","","","bandit-task-exp6","57","1522319","0.0-10.0-0.1","female","19","Australia","24820","24803","neither","neither","imgNWTK/triangle.png","imgNWTK/square.png","noninfo","eq","2.46","","47","2","1","0","null","imgNWTK/triangle.png","imgNWTK/square.png","imgNWTK/square.png","106","112","","",""
"10957","","","bandit-task-exp6","58","1556675","0.0-10.0-0.2","female","19","Australia","24820","24803","neither","neither","imgNWTK/triangle.png","imgNWTK/square.png","noninfo","eq","2.46","","48","1","1","101","null","imgNWTK/triangle.png","imgNWTK/square.png","imgNWTK/triangle.png","106","200","","",""
"12939","","","bandit-task-exp6","59","1591838","0.0-10.0-0.3","female","19","Australia","24820","24803","neither","neither","imgNWTK/triangle.png","imgNWTK/square.png","noninfo","eq","2.46","","49","1","1","109","null","imgNWTK/triangle.png","imgNWTK/square.png","imgNWTK/triangle.png","106","196","","",""
"10223","","","bandit-task-exp6","60","1644878","0.0-10.0-0.4","female","19","Australia","24820","24803","neither","neither","imgNWTK/triangle.png","imgNWTK/square.png","noninfo","eq","2.46","","50","2","1","0","null","imgNWTK/square.png","imgNWTK/triangle.png","imgNWTK/square.png","160","90","","",""
"8117","","","bandit-task-exp6","61","1676879","0.0-10.0-0.5","female","19","Australia","24820","24803","neither","neither","imgNWTK/triangle.png","imgNWTK/square.png","noninfo","eq","2.46","","51","1","2","0","null","imgNWTK/triangle.png","imgNWTK/square.png","imgNWTK/triangle.png","100","115","","",""
"13606","","","bandit-task-exp6","62","1716938","0.0-10.0-0.6","female","19","Australia","24820","24803","neither","neither","imgNWTK/triangle.png","imgNWTK/square.png","noninfo","eq","2.46","","52","2","1","0","null","imgNWTK/square.png","imgNWTK/triangle.png","imgNWTK/square.png","115","168","","",""
"11749","","","bandit-task-exp6","63","1750992","0.0-10.0-0.7","female","19","Australia","24820","24803","neither","neither","imgNWTK/triangle.png","imgNWTK/square.png","noninfo","eq","2.46","","53","2","1","0","null","imgNWTK/triangle.png","imgNWTK/square.png","imgNWTK/square.png","115","150","","",""
"9392","","","bandit-task-exp6","64","1783648","0.0-10.0-0.8","female","19","Australia","24820","24803","neither","neither","imgNWTK/triangle.png","imgNWTK/square.png","noninfo","eq","2.46","","54","1","2","0","null","imgNWTK/triangle.png","imgNWTK/square.png","imgNWTK/triangle.png","90","120","","",""
"9514","","","bandit-task-exp6","65","1818927","0.0-10.0-0.9","female","19","Australia","24820","24803","neither","neither","imgNWTK/triangle.png","imgNWTK/square.png","noninfo","eq","2.46","","55","1","1","107","null","imgNWTK/triangle.png","imgNWTK/square.png","imgNWTK/triangle.png","115","140","","",""
"20317","","","bandit-task-exp6","66","1867410","0.0-10.0-0.10","female","19","Australia","24820","24803","neither","neither","imgNWTK/triangle.png","imgNWTK/square.png","noninfo","eq","2.46","","56","1","2","0","null","imgNWTK/triangle.png","imgNWTK/square.png","imgNWTK/triangle.png","105","140","","",""
"19560","","","bandit-task-exp6","67","1909017","0.0-10.0-0.11","female","19","Australia","24820","24803","neither","neither","imgNWTK/triangle.png","imgNWTK/square.png","noninfo","eq","2.46","","57","1","2","0","null","imgNWTK/triangle.png","imgNWTK/square.png","imgNWTK/triangle.png","97","115","","",""
"11273","","","bandit-task-exp6","68","1950773","0.0-10.0-0.12","female","19","Australia","24820","24803","neither","neither","imgNWTK/triangle.png","imgNWTK/square.png","noninfo","eq","2.46","","58","2","1","0","null","imgNWTK/triangle.png","imgNWTK/square.png","imgNWTK/square.png","100","196","","",""
"7115","","","bandit-task-exp6","69","1980589","0.0-10.0-0.13","female","19","Australia","24820","24803","neither","neither","imgNWTK/triangle.png","imgNWTK/square.png","noninfo","eq","2.46","","59","1","2","0","null","imgNWTK/triangle.png","imgNWTK/square.png","imgNWTK/triangle.png","90","151","","",""
"8370","","","bandit-task-exp6","70","2014372","0.0-10.0-0.14","female","19","Australia","24820","24803","neither","neither","imgNWTK/triangle.png","imgNWTK/square.png","noninfo","eq","2.46","","60","1","1","92","null","imgNWTK/triangle.png","imgNWTK/square.png","imgNWTK/triangle.png","97","154","","",""
"7044","<p> Congratulations, you have finished the main part of the experiment. </p><p>Before you finish, we have a few short questions about the options and outcomes you saw in the task.</p>","0","html-button-response","71","2021416","0.0-11.0","female","19","Australia","24820","24803","neither","neither","imgNWTK/triangle.png","imgNWTK/square.png","noninfo","eq","2.46","","","","","","","","","","","","","",""
"9982","<p><b>Now, imagine that you clicked on the below button for another 10 trials (this includes <i> BOTH WIN and NO-WIN trials</i>).</p> <img src= 'imgNWTK/triangle.png'></img></br></br> <p><b>Please type the reward (number of points) you would expect to receive on every trial.</br> Click start to begin.</p>","0","html-button-response","72","2031400","0.0-12.0","female","19","Australia","24820","24803","neither","neither","imgNWTK/triangle.png","imgNWTK/square.png","noninfo","eq","2.46","","","","","","","","","","","","","",""
"12975.5","","","survey-number","73","2044378","0.0-13.0-0.0","female","19","Australia","24820","24803","neither","neither","imgNWTK/triangle.png","imgNWTK/square.png","noninfo","eq","2.46","{""undefined"":""90""}","","","","","","","","","","","","imgNWTK/triangle.png",""
"6138.200000047684","","","survey-number","74","2050518","0.0-13.0-0.1","female","19","Australia","24820","24803","neither","neither","imgNWTK/triangle.png","imgNWTK/square.png","noninfo","eq","2.46","{""undefined"":""0""}","","","","","","","","","","","","imgNWTK/triangle.png",""
"3565.2999999523163","","","survey-number","75","2054085","0.0-13.0-0.2","female","19","Australia","24820","24803","neither","neither","imgNWTK/triangle.png","imgNWTK/square.png","noninfo","eq","2.46","{""undefined"":""0""}","","","","","","","","","","","","imgNWTK/triangle.png",""
"4423.899999976158","","","survey-number","76","2058511","0.0-13.0-0.3","female","19","Australia","24820","24803","neither","neither","imgNWTK/triangle.png","imgNWTK/square.png","noninfo","eq","2.46","{""undefined"":""97""}","","","","","","","","","","","","imgNWTK/triangle.png",""
"2453","","","survey-number","77","2060965","0.0-13.0-0.4","female","19","Australia","24820","24803","neither","neither","imgNWTK/triangle.png","imgNWTK/square.png","noninfo","eq","2.46","{""undefined"":""101""}","","","","","","","","","","","","imgNWTK/triangle.png",""
"6070.300000071526","","","survey-number","78","2067037","0.0-13.0-0.5","female","19","Australia","24820","24803","neither","neither","imgNWTK/triangle.png","imgNWTK/square.png","noninfo","eq","2.46","{""undefined"":""150""}","","","","","","","","","","","","imgNWTK/triangle.png",""
"3034.399999976158","","","survey-number","79","2070073","0.0-13.0-0.6","female","19","Australia","24820","24803","neither","neither","imgNWTK/triangle.png","imgNWTK/square.png","noninfo","eq","2.46","{""undefined"":""0""}","","","","","","","","","","","","imgNWTK/triangle.png",""
"1380.2000000476837","","","survey-number","80","2071454","0.0-13.0-0.7","female","19","Australia","24820","24803","neither","neither","imgNWTK/triangle.png","imgNWTK/square.png","noninfo","eq","2.46","{""undefined"":""0""}","","","","","","","","","","","","imgNWTK/triangle.png",""
"4079.8000000715256","","","survey-number","81","2075535","0.0-13.0-0.8","female","19","Australia","24820","24803","neither","neither","imgNWTK/triangle.png","imgNWTK/square.png","noninfo","eq","2.46","{""undefined"":""100""}","","","","","","","","","","","","imgNWTK/triangle.png",""
"2102","","","survey-number","82","2077639","0.0-13.0-0.9","female","19","Australia","24820","24803","neither","neither","imgNWTK/triangle.png","imgNWTK/square.png","noninfo","eq","2.46","{""undefined"":""97""}","","","","","","","","","","","","imgNWTK/triangle.png",""
"1358","<p><b>Imagine that you clicked on the below button for another 10 trials (this includes <i> both WIN and NO-WIN trials</i>).</p> <img src= 'imgNWTK/square.png'></img></br></br> <p><b>Please type the reward (number of points) you would expect to receive on every trial.</br> Click start to begin.</p>","0","html-button-response","83","2078997","0.0-14.0","female","19","Australia","24820","24803","neither","neither","imgNWTK/triangle.png","imgNWTK/square.png","noninfo","eq","2.46","","","","","","","","","","","","","",""
"2524.1999999284744","","","survey-number","84","2081523","0.0-15.0-0.0","female","19","Australia","24820","24803","neither","neither","imgNWTK/triangle.png","imgNWTK/square.png","noninfo","eq","2.46","{""undefined"":""120""}","","","","","","","","","","","","imgNWTK/square.png",""
"1608.2000000476837","","","survey-number","85","2083133","0.0-15.0-0.1","female","19","Australia","24820","24803","neither","neither","imgNWTK/triangle.png","imgNWTK/square.png","noninfo","eq","2.46","{""undefined"":""150""}","","","","","","","","","","","","imgNWTK/square.png",""
"4759.799999952316","","","survey-number","86","2087894","0.0-15.0-0.2","female","19","Australia","24820","24803","neither","neither","imgNWTK/triangle.png","imgNWTK/square.png","noninfo","eq","2.46","{""undefined"":""140""}","","","","","","","","","","","","imgNWTK/square.png",""
"1832.8999999761581","","","survey-number","87","2089729","0.0-15.0-0.3","female","19","Australia","24820","24803","neither","neither","imgNWTK/triangle.png","imgNWTK/square.png","noninfo","eq","2.46","{""undefined"":""100""}","","","","","","","","","","","","imgNWTK/square.png",""
"1320.1000000238419","","","survey-number","88","2091051","0.0-15.0-0.4","female","19","Australia","24820","24803","neither","neither","imgNWTK/triangle.png","imgNWTK/square.png","noninfo","eq","2.46","{""undefined"":""0""}","","","","","","","","","","","","imgNWTK/square.png",""
"971.1000000238419","","","survey-number","89","2092023","0.0-15.0-0.5","female","19","Australia","24820","24803","neither","neither","imgNWTK/triangle.png","imgNWTK/square.png","noninfo","eq","2.46","{""undefined"":""00""}","","","","","","","","","","","","imgNWTK/square.png",""
"2489","","","survey-number","90","2094514","0.0-15.0-0.6","female","19","Australia","24820","24803","neither","neither","imgNWTK/triangle.png","imgNWTK/square.png","noninfo","eq","2.46","{""undefined"":""136""}","","","","","","","","","","","","imgNWTK/square.png",""
"1735.8999999761581","","","survey-number","91","2096252","0.0-15.0-0.7","female","19","Australia","24820","24803","neither","neither","imgNWTK/triangle.png","imgNWTK/square.png","noninfo","eq","2.46","{""undefined"":""154""}","","","","","","","","","","","","imgNWTK/square.png",""
"1128.5","","","survey-number","92","2097382","0.0-15.0-0.8","female","19","Australia","24820","24803","neither","neither","imgNWTK/triangle.png","imgNWTK/square.png","noninfo","eq","2.46","{""undefined"":""0""}","","","","","","","","","","","","imgNWTK/square.png",""
"1077.6000000238419","","","survey-number","93","2098461","0.0-15.0-0.9","female","19","Australia","24820","24803","neither","neither","imgNWTK/triangle.png","imgNWTK/square.png","noninfo","eq","2.46","{""undefined"":""0""}","","","","","","","","","","","","imgNWTK/square.png",""
"38475.40000009537","","","survey-number","94","2136943","0.0-16.0","female","19","Australia","24820","24803","neither","neither","imgNWTK/triangle.png","imgNWTK/square.png","noninfo","eq","2.46","{""undefined"":""150""}","","","","","","","","","","","","","imgNWTK/square.png"
"5028.400000095367","","","survey-number","95","2141974","0.0-17.0","female","19","Australia","24820","24803","neither","neither","imgNWTK/triangle.png","imgNWTK/square.png","noninfo","eq","2.46","{""undefined"":""97""}","","","","","","","","","","","","","imgNWTK/triangle.png"
"1658","<p style=""text-align:left;"">Great! We are almost at the end of the study... (Please do not close the browser window yet.)</p><p> Your final points balance is 2457, which equals to a bonus payment of $2.46. Please collect your payment from Mathews Building Room 721 (Mon-Fri 9am-5pm); please email amy.x.li@unsw.edu.au at least 24 hours prior to collection so that this is ready for you.</p><p style=""text-align:left;"">To view the debriefing form, please click <a href=""./imgNWTK/debrief_3205.pdf"" target=""_blank"">here</a> to download a copy.</p><p style=""text-align:left;"">Then, <b>please click the below button</b> to confirm that you have received your debrief and to complete the study. Upon clicking ""Finish!"", your SONA credit will be automatically assigned.</p>","0","html-button-response","96","2143632","0.0-18.0","female","19","Australia","24820","24803","neither","neither","imgNWTK/triangle.png","imgNWTK/square.png","noninfo","eq","2.46","","","","","","","","","","","","","",""
