"rt","stimulus","button_pressed","trial_type","trial_index","time_elapsed","internal_node_id","gender","age","language","PID","sona_id","subStim","optStim","stim1","stim2","infoCond","optimCond","bonus","responses","banditTrial","choice","cue","feedback","estimateData","leftOption","rightOption","choiceName","leftInput","rightInput","key_press","postQ","singleEst"
"13106","<p>Thank you for signing up to participate in SONA Study 465! <br> During this study, please focus on the experiment and refrain from activities such as:</p>- <b>Switching to other tabs on your browser (this will be monitored via the experiment)</br> - Using your mobile phone/cell phone</br> - Communicating with others</br></br></b><p>This way, you are helping to provide data that is useful for psychological research. We thank you for your cooperation!</p>","0","html-button-response","0","13110","0.0-0.0","female","18","Australia","79844","24895","imgNWTK/square.png","imgNWTK/triangle.png","imgNWTK/square.png","imgNWTK/triangle.png","noninfo","optim","4.06","","","","","","","","","","","","","",""
"1476","<p>Welcome to the experiment!</p><p>You will now read some instructions about the task. Press the 'Next' button to continue. </p>","0","html-button-response","1","14588","0.0-1.0","female","18","Australia","79844","24895","imgNWTK/square.png","imgNWTK/triangle.png","imgNWTK/square.png","imgNWTK/triangle.png","noninfo","optim","4.06","","","","","","","","","","","","","",""
"10343","<p> On each trial throughout the experiment you will choose between two options, </br>a <b>Black Square </b> and <b> Black Triangle </b>, as seen below.</p><div><div style= 'float: left; width: 300px; margin: 10px 10px;'><img src= 'imgNWTK/square.png'></img></div><div style= 'float: right; width: 300px; margin: 10px 10px;'><img src= 'imgNWTK/triangle.png'></img></div></div><br/><br/><br/><br/><br/><br/><br/><br/><br/><br/><br/><p>Each option results in winning points or receiving 0 points.</br>There is a 50% chance of either winning or receiving 0 points.</p><p>You won't receive the outcome until after a <b> 20 second delay</b>.</p>","0","html-button-response","2","24933","0.0-2.0-0.0","female","18","Australia","79844","24895","imgNWTK/square.png","imgNWTK/triangle.png","imgNWTK/square.png","imgNWTK/triangle.png","noninfo","optim","4.06","","","","","","","","","","","","","",""
"38029","<img src= 'imgNWTK/NonInfoDiagram.png'></img><p>As seen above, whether you choose the square or triangle, you will receive a coloured circle after the choice. </p> <p>This circle will be on screen for 20 seconds until you win points or receive 0 points.</p><p>The coloured circle depends on which option you chose. </br> In the above example, choosing a triangle leads to a green circle and choosing the square leads to a red circle.</p>Please note: the circles in your task will be different to the above colours.</br></br>","0","html-button-response","3","62964","0.0-2.0-1.0","female","18","Australia","79844","24895","imgNWTK/square.png","imgNWTK/triangle.png","imgNWTK/square.png","imgNWTK/triangle.png","noninfo","optim","4.06","","","","","","","","","","","","","",""
"25158","<img src= 'cues/winTrials_noInfo.png' width = '1200'></img><p>To reiterate, 50% of the outcomes of each option will be WIN TRIALS, and the other 50% will be NO-WIN TRIALS.","0","html-button-response","4","88124","0.0-2.0-2.0","female","18","Australia","79844","24895","imgNWTK/square.png","imgNWTK/triangle.png","imgNWTK/square.png","imgNWTK/triangle.png","noninfo","optim","4.06","","","","","","","","","","","","","",""
"17422","<p> There will be <b>four blocks</b> in the experiment.</br>You will be given a short 15 second break between each block.</p><p><b>The points and the options will remain the same between the blocks.</b></p>The blocks are there just to give you a small break.</br></br></br></br><p>The points you earn in the task are also equal to <b> actual money</b>.</br> <b>1000 points is equal to $1 AUD</b></p><p>This is the rate you will be paid at the experiment's end.","0","html-button-response","5","105547","0.0-2.0-3.0","female","18","Australia","79844","24895","imgNWTK/square.png","imgNWTK/triangle.png","imgNWTK/square.png","imgNWTK/triangle.png","noninfo","optim","4.06","","","","","","","","","","","","","",""
"17380","","","survey-multi-choice","6","122933","0.0-2.0-4.0","female","18","Australia","79844","24895","imgNWTK/square.png","imgNWTK/triangle.png","imgNWTK/square.png","imgNWTK/triangle.png","noninfo","optim","4.06","{""Q0"":""20 Seconds"",""Q1"":""True"",""Q2"":""Equally""}","","","","","","","","","","","","",""
"2380","<p> Well done, all your answers were correct! <br> The experiment is about to start now. <br/> Click start to continue, or email your researcher <b>(amy.x.li@unsw.edu.au)</b> if you have any questions before starting.","0","html-button-response","7","125316","0.0-3.0","female","18","Australia","79844","24895","imgNWTK/square.png","imgNWTK/triangle.png","imgNWTK/square.png","imgNWTK/triangle.png","noninfo","optim","4.06","","","","","","","","","","","","","",""
"2203","","","bandit-task-exp6","8","150613","0.0-4.0-0.0","female","18","Australia","79844","24895","imgNWTK/square.png","imgNWTK/triangle.png","imgNWTK/square.png","imgNWTK/triangle.png","noninfo","optim","4.06","","1","1","2","0","null","imgNWTK/square.png","imgNWTK/triangle.png","imgNWTK/square.png","NaN","NaN","","",""
"1235","","","bandit-task-exp6","9","175012","0.0-4.0-0.1","female","18","Australia","79844","24895","imgNWTK/square.png","imgNWTK/triangle.png","imgNWTK/square.png","imgNWTK/triangle.png","noninfo","optim","4.06","","2","2","2","126","null","imgNWTK/triangle.png","imgNWTK/square.png","imgNWTK/triangle.png","NaN","NaN","","",""
"1948","","","bandit-task-exp6","10","199940","0.0-4.0-0.2","female","18","Australia","79844","24895","imgNWTK/square.png","imgNWTK/triangle.png","imgNWTK/square.png","imgNWTK/triangle.png","noninfo","optim","4.06","","3","2","1","0","null","imgNWTK/square.png","imgNWTK/triangle.png","imgNWTK/triangle.png","NaN","NaN","","",""
"1150","","","bandit-task-exp6","11","224204","0.0-4.0-0.3","female","18","Australia","79844","24895","imgNWTK/square.png","imgNWTK/triangle.png","imgNWTK/square.png","imgNWTK/triangle.png","noninfo","optim","4.06","","4","1","2","0","null","imgNWTK/triangle.png","imgNWTK/square.png","imgNWTK/square.png","NaN","NaN","","",""
"1094","","","bandit-task-exp6","12","248804","0.0-4.0-0.4","female","18","Australia","79844","24895","imgNWTK/square.png","imgNWTK/triangle.png","imgNWTK/square.png","imgNWTK/triangle.png","noninfo","optim","4.06","","5","2","2","114","null","imgNWTK/triangle.png","imgNWTK/square.png","imgNWTK/triangle.png","NaN","NaN","","",""
"3870","","","bandit-task-exp6","13","275677","0.0-4.0-0.5","female","18","Australia","79844","24895","imgNWTK/square.png","imgNWTK/triangle.png","imgNWTK/square.png","imgNWTK/triangle.png","noninfo","optim","4.06","","6","2","2","116","null","imgNWTK/triangle.png","imgNWTK/square.png","imgNWTK/triangle.png","NaN","NaN","","",""
"1981","","","bandit-task-exp6","14","300548","0.0-4.0-0.6","female","18","Australia","79844","24895","imgNWTK/square.png","imgNWTK/triangle.png","imgNWTK/square.png","imgNWTK/triangle.png","noninfo","optim","4.06","","7","1","1","73","null","imgNWTK/triangle.png","imgNWTK/square.png","imgNWTK/square.png","NaN","NaN","","",""
"933","","","bandit-task-exp6","15","324429","0.0-4.0-0.7","female","18","Australia","79844","24895","imgNWTK/square.png","imgNWTK/triangle.png","imgNWTK/square.png","imgNWTK/triangle.png","noninfo","optim","4.06","","8","2","2","128","null","imgNWTK/triangle.png","imgNWTK/square.png","imgNWTK/triangle.png","NaN","NaN","","",""
"940","","","bandit-task-exp6","16","347757","0.0-4.0-0.8","female","18","Australia","79844","24895","imgNWTK/square.png","imgNWTK/triangle.png","imgNWTK/square.png","imgNWTK/triangle.png","noninfo","optim","4.06","","9","2","1","0","null","imgNWTK/triangle.png","imgNWTK/square.png","imgNWTK/triangle.png","NaN","NaN","","",""
"895","","","bandit-task-exp6","17","372045","0.0-4.0-0.9","female","18","Australia","79844","24895","imgNWTK/square.png","imgNWTK/triangle.png","imgNWTK/square.png","imgNWTK/triangle.png","noninfo","optim","4.06","","10","1","2","0","null","imgNWTK/triangle.png","imgNWTK/square.png","imgNWTK/square.png","NaN","NaN","","",""
"2355","","","bandit-task-exp6","18","397324","0.0-4.0-0.10","female","18","Australia","79844","24895","imgNWTK/square.png","imgNWTK/triangle.png","imgNWTK/square.png","imgNWTK/triangle.png","noninfo","optim","4.06","","11","2","1","0","null","imgNWTK/square.png","imgNWTK/triangle.png","imgNWTK/triangle.png","NaN","NaN","","",""
"1125","","","bandit-task-exp6","19","427676","0.0-4.0-0.11","female","18","Australia","79844","24895","imgNWTK/square.png","imgNWTK/triangle.png","imgNWTK/square.png","imgNWTK/triangle.png","noninfo","optim","4.06","","12","2","1","0","null","imgNWTK/triangle.png","imgNWTK/square.png","imgNWTK/triangle.png","NaN","NaN","","",""
"1252","","","bandit-task-exp6","20","456268","0.0-4.0-0.12","female","18","Australia","79844","24895","imgNWTK/square.png","imgNWTK/triangle.png","imgNWTK/square.png","imgNWTK/triangle.png","noninfo","optim","4.06","","13","1","2","0","null","imgNWTK/triangle.png","imgNWTK/square.png","imgNWTK/square.png","NaN","NaN","","",""
"2364","","","bandit-task-exp6","21","481523","0.0-4.0-0.13","female","18","Australia","79844","24895","imgNWTK/square.png","imgNWTK/triangle.png","imgNWTK/square.png","imgNWTK/triangle.png","noninfo","optim","4.06","","14","1","1","84","null","imgNWTK/triangle.png","imgNWTK/square.png","imgNWTK/square.png","NaN","NaN","","",""
"1757","","","bandit-task-exp6","22","505876","0.0-4.0-0.14","female","18","Australia","79844","24895","imgNWTK/square.png","imgNWTK/triangle.png","imgNWTK/square.png","imgNWTK/triangle.png","noninfo","optim","4.06","","15","1","2","0","null","imgNWTK/triangle.png","imgNWTK/square.png","imgNWTK/square.png","NaN","NaN","","",""
"null","<p><b> Congratulations, you have finished this block. </b> </p><p>Please take a short break before moving onto the next block.</p><p>The next block will start after a 15 second break.</p><b>Remember, the point rewards are the same between blocks","","html-keyboard-response","23","520892","0.0-5.0","female","18","Australia","79844","24895","imgNWTK/square.png","imgNWTK/triangle.png","imgNWTK/square.png","imgNWTK/triangle.png","noninfo","optim","4.06","","","","","","","","","","","","null","",""
"3364","","","bandit-task-exp6","24","548797","0.0-6.0-0.0","female","18","Australia","79844","24895","imgNWTK/square.png","imgNWTK/triangle.png","imgNWTK/square.png","imgNWTK/triangle.png","noninfo","optim","4.06","","16","2","2","120","null","imgNWTK/square.png","imgNWTK/triangle.png","imgNWTK/triangle.png","NaN","NaN","","",""
"781","","","bandit-task-exp6","25","572804","0.0-6.0-0.1","female","18","Australia","79844","24895","imgNWTK/square.png","imgNWTK/triangle.png","imgNWTK/square.png","imgNWTK/triangle.png","noninfo","optim","4.06","","17","2","2","120","null","imgNWTK/square.png","imgNWTK/triangle.png","imgNWTK/triangle.png","NaN","NaN","","",""
"684","","","bandit-task-exp6","26","597444","0.0-6.0-0.2","female","18","Australia","79844","24895","imgNWTK/square.png","imgNWTK/triangle.png","imgNWTK/square.png","imgNWTK/triangle.png","noninfo","optim","4.06","","18","2","2","120","null","imgNWTK/square.png","imgNWTK/triangle.png","imgNWTK/triangle.png","NaN","NaN","","",""
"837","","","bandit-task-exp6","27","624084","0.0-6.0-0.3","female","18","Australia","79844","24895","imgNWTK/square.png","imgNWTK/triangle.png","imgNWTK/square.png","imgNWTK/triangle.png","noninfo","optim","4.06","","19","2","2","129","null","imgNWTK/square.png","imgNWTK/triangle.png","imgNWTK/triangle.png","NaN","NaN","","",""
"1301","","","bandit-task-exp6","28","658845","0.0-6.0-0.4","female","18","Australia","79844","24895","imgNWTK/square.png","imgNWTK/triangle.png","imgNWTK/square.png","imgNWTK/triangle.png","noninfo","optim","4.06","","20","2","2","119","null","imgNWTK/square.png","imgNWTK/triangle.png","imgNWTK/triangle.png","NaN","NaN","","",""
"915","","","bandit-task-exp6","29","688684","0.0-6.0-0.5","female","18","Australia","79844","24895","imgNWTK/square.png","imgNWTK/triangle.png","imgNWTK/square.png","imgNWTK/triangle.png","noninfo","optim","4.06","","21","2","1","0","null","imgNWTK/triangle.png","imgNWTK/square.png","imgNWTK/triangle.png","NaN","NaN","","",""
"1244","","","bandit-task-exp6","30","716516","0.0-6.0-0.6","female","18","Australia","79844","24895","imgNWTK/square.png","imgNWTK/triangle.png","imgNWTK/square.png","imgNWTK/triangle.png","noninfo","optim","4.06","","22","1","2","0","null","imgNWTK/triangle.png","imgNWTK/square.png","imgNWTK/square.png","NaN","NaN","","",""
"941","","","bandit-task-exp6","31","740572","0.0-6.0-0.7","female","18","Australia","79844","24895","imgNWTK/square.png","imgNWTK/triangle.png","imgNWTK/square.png","imgNWTK/triangle.png","noninfo","optim","4.06","","23","2","2","129","null","imgNWTK/square.png","imgNWTK/triangle.png","imgNWTK/triangle.png","NaN","NaN","","",""
"1462","","","bandit-task-exp6","32","771269","0.0-6.0-0.8","female","18","Australia","79844","24895","imgNWTK/square.png","imgNWTK/triangle.png","imgNWTK/square.png","imgNWTK/triangle.png","noninfo","optim","4.06","","24","2","1","0","null","imgNWTK/triangle.png","imgNWTK/square.png","imgNWTK/triangle.png","NaN","NaN","","",""
"1141","","","bandit-task-exp6","33","794916","0.0-6.0-0.9","female","18","Australia","79844","24895","imgNWTK/square.png","imgNWTK/triangle.png","imgNWTK/square.png","imgNWTK/triangle.png","noninfo","optim","4.06","","25","2","2","124","null","imgNWTK/square.png","imgNWTK/triangle.png","imgNWTK/triangle.png","NaN","NaN","","",""
"1053","","","bandit-task-exp6","34","821643","0.0-6.0-0.10","female","18","Australia","79844","24895","imgNWTK/square.png","imgNWTK/triangle.png","imgNWTK/square.png","imgNWTK/triangle.png","noninfo","optim","4.06","","26","2","2","112","null","imgNWTK/square.png","imgNWTK/triangle.png","imgNWTK/triangle.png","NaN","NaN","","",""
"2325","","","bandit-task-exp6","35","846172","0.0-6.0-0.11","female","18","Australia","79844","24895","imgNWTK/square.png","imgNWTK/triangle.png","imgNWTK/square.png","imgNWTK/triangle.png","noninfo","optim","4.06","","27","2","2","118","null","imgNWTK/triangle.png","imgNWTK/square.png","imgNWTK/triangle.png","NaN","NaN","","",""
"1070","","","bandit-task-exp6","36","874428","0.0-6.0-0.12","female","18","Australia","79844","24895","imgNWTK/square.png","imgNWTK/triangle.png","imgNWTK/square.png","imgNWTK/triangle.png","noninfo","optim","4.06","","28","1","2","0","null","imgNWTK/square.png","imgNWTK/triangle.png","imgNWTK/square.png","NaN","NaN","","",""
"830","","","bandit-task-exp6","37","897460","0.0-6.0-0.13","female","18","Australia","79844","24895","imgNWTK/square.png","imgNWTK/triangle.png","imgNWTK/square.png","imgNWTK/triangle.png","noninfo","optim","4.06","","29","2","2","123","null","imgNWTK/square.png","imgNWTK/triangle.png","imgNWTK/triangle.png","NaN","NaN","","",""
"772","","","bandit-task-exp6","38","921004","0.0-6.0-0.14","female","18","Australia","79844","24895","imgNWTK/square.png","imgNWTK/triangle.png","imgNWTK/square.png","imgNWTK/triangle.png","noninfo","optim","4.06","","30","2","1","0","null","imgNWTK/triangle.png","imgNWTK/square.png","imgNWTK/triangle.png","NaN","NaN","","",""
"null","<p><b> Congratulations, you have finished this block. </b> </p><p>Please take a short break before moving onto the next block.</p><p>The next block will start after a 15 second break.</p><b>Remember, the point rewards are the same between blocks","","html-keyboard-response","39","936009","0.0-7.0","female","18","Australia","79844","24895","imgNWTK/square.png","imgNWTK/triangle.png","imgNWTK/square.png","imgNWTK/triangle.png","noninfo","optim","4.06","","","","","","","","","","","","null","",""
"1759","","","bandit-task-exp6","40","959980","0.0-8.0-0.0","female","18","Australia","79844","24895","imgNWTK/square.png","imgNWTK/triangle.png","imgNWTK/square.png","imgNWTK/triangle.png","noninfo","optim","4.06","","31","2","1","0","null","imgNWTK/triangle.png","imgNWTK/square.png","imgNWTK/triangle.png","NaN","NaN","","",""
"965","","","bandit-task-exp6","41","983004","0.0-8.0-0.1","female","18","Australia","79844","24895","imgNWTK/square.png","imgNWTK/triangle.png","imgNWTK/square.png","imgNWTK/triangle.png","noninfo","optim","4.06","","32","1","2","0","null","imgNWTK/square.png","imgNWTK/triangle.png","imgNWTK/square.png","NaN","NaN","","",""
"1197","","","bandit-task-exp6","42","1007140","0.0-8.0-0.2","female","18","Australia","79844","24895","imgNWTK/square.png","imgNWTK/triangle.png","imgNWTK/square.png","imgNWTK/triangle.png","noninfo","optim","4.06","","33","2","2","112","null","imgNWTK/triangle.png","imgNWTK/square.png","imgNWTK/triangle.png","NaN","NaN","","",""
"1132","","","bandit-task-exp6","43","1030515","0.0-8.0-0.3","female","18","Australia","79844","24895","imgNWTK/square.png","imgNWTK/triangle.png","imgNWTK/square.png","imgNWTK/triangle.png","noninfo","optim","4.06","","34","2","1","0","null","imgNWTK/square.png","imgNWTK/triangle.png","imgNWTK/triangle.png","NaN","NaN","","",""
"926","","","bandit-task-exp6","44","1054147","0.0-8.0-0.4","female","18","Australia","79844","24895","imgNWTK/square.png","imgNWTK/triangle.png","imgNWTK/square.png","imgNWTK/triangle.png","noninfo","optim","4.06","","35","1","1","83","null","imgNWTK/triangle.png","imgNWTK/square.png","imgNWTK/square.png","NaN","NaN","","",""
"805","","","bandit-task-exp6","45","1080324","0.0-8.0-0.5","female","18","Australia","79844","24895","imgNWTK/square.png","imgNWTK/triangle.png","imgNWTK/square.png","imgNWTK/triangle.png","noninfo","optim","4.06","","36","1","2","0","null","imgNWTK/triangle.png","imgNWTK/square.png","imgNWTK/square.png","NaN","NaN","","",""
"765","","","bandit-task-exp6","46","1103820","0.0-8.0-0.6","female","18","Australia","79844","24895","imgNWTK/square.png","imgNWTK/triangle.png","imgNWTK/square.png","imgNWTK/triangle.png","noninfo","optim","4.06","","37","2","2","118","null","imgNWTK/square.png","imgNWTK/triangle.png","imgNWTK/triangle.png","NaN","NaN","","",""
"844","","","bandit-task-exp6","47","1127108","0.0-8.0-0.7","female","18","Australia","79844","24895","imgNWTK/square.png","imgNWTK/triangle.png","imgNWTK/square.png","imgNWTK/triangle.png","noninfo","optim","4.06","","38","1","2","0","null","imgNWTK/triangle.png","imgNWTK/square.png","imgNWTK/square.png","NaN","NaN","","",""
"613","","","bandit-task-exp6","48","1151251","0.0-8.0-0.8","female","18","Australia","79844","24895","imgNWTK/square.png","imgNWTK/triangle.png","imgNWTK/square.png","imgNWTK/triangle.png","noninfo","optim","4.06","","39","2","2","119","null","imgNWTK/triangle.png","imgNWTK/square.png","imgNWTK/triangle.png","NaN","NaN","","",""
"965","","","bandit-task-exp6","49","1175395","0.0-8.0-0.9","female","18","Australia","79844","24895","imgNWTK/square.png","imgNWTK/triangle.png","imgNWTK/square.png","imgNWTK/triangle.png","noninfo","optim","4.06","","40","2","2","122","null","imgNWTK/square.png","imgNWTK/triangle.png","imgNWTK/triangle.png","NaN","NaN","","",""
"556","","","bandit-task-exp6","50","1198891","0.0-8.0-0.10","female","18","Australia","79844","24895","imgNWTK/square.png","imgNWTK/triangle.png","imgNWTK/square.png","imgNWTK/triangle.png","noninfo","optim","4.06","","41","2","2","112","null","imgNWTK/triangle.png","imgNWTK/square.png","imgNWTK/triangle.png","NaN","NaN","","",""
"645","","","bandit-task-exp6","51","1221979","0.0-8.0-0.11","female","18","Australia","79844","24895","imgNWTK/square.png","imgNWTK/triangle.png","imgNWTK/square.png","imgNWTK/triangle.png","noninfo","optim","4.06","","42","2","2","128","null","imgNWTK/triangle.png","imgNWTK/square.png","imgNWTK/triangle.png","NaN","NaN","","",""
"814","","","bandit-task-exp6","52","1245436","0.0-8.0-0.12","female","18","Australia","79844","24895","imgNWTK/square.png","imgNWTK/triangle.png","imgNWTK/square.png","imgNWTK/triangle.png","noninfo","optim","4.06","","43","2","2","121","null","imgNWTK/square.png","imgNWTK/triangle.png","imgNWTK/triangle.png","NaN","NaN","","",""
"869","","","bandit-task-exp6","53","1268891","0.0-8.0-0.13","female","18","Australia","79844","24895","imgNWTK/square.png","imgNWTK/triangle.png","imgNWTK/square.png","imgNWTK/triangle.png","noninfo","optim","4.06","","44","2","1","0","null","imgNWTK/square.png","imgNWTK/triangle.png","imgNWTK/triangle.png","NaN","NaN","","",""
"2269","","","bandit-task-exp6","54","1293219","0.0-8.0-0.14","female","18","Australia","79844","24895","imgNWTK/square.png","imgNWTK/triangle.png","imgNWTK/square.png","imgNWTK/triangle.png","noninfo","optim","4.06","","45","2","2","129","null","imgNWTK/triangle.png","imgNWTK/square.png","imgNWTK/triangle.png","NaN","NaN","","",""
"null","<p><b> Congratulations, you have finished this block. </b> </p><p>Please take a short break before moving onto the next block.</p><p>The next block will start after a 15 second break.</p><b>Remember, the point rewards are the same between blocks","","html-keyboard-response","55","1308232","0.0-9.0","female","18","Australia","79844","24895","imgNWTK/square.png","imgNWTK/triangle.png","imgNWTK/square.png","imgNWTK/triangle.png","noninfo","optim","4.06","","","","","","","","","","","","null","",""
"34479","","","bandit-task-exp6","56","1365579","0.0-10.0-0.0","female","18","Australia","79844","24895","imgNWTK/square.png","imgNWTK/triangle.png","imgNWTK/square.png","imgNWTK/triangle.png","noninfo","optim","4.06","","46","1","1","82","null","imgNWTK/square.png","imgNWTK/triangle.png","imgNWTK/square.png","110","170","","",""
"12932","","","bandit-task-exp6","57","1400771","0.0-10.0-0.1","female","18","Australia","79844","24895","imgNWTK/square.png","imgNWTK/triangle.png","imgNWTK/square.png","imgNWTK/triangle.png","noninfo","optim","4.06","","47","2","2","119","null","imgNWTK/triangle.png","imgNWTK/square.png","imgNWTK/triangle.png","100","90","","",""
"6076","","","bandit-task-exp6","58","1428884","0.0-10.0-0.2","female","18","Australia","79844","24895","imgNWTK/square.png","imgNWTK/triangle.png","imgNWTK/square.png","imgNWTK/triangle.png","noninfo","optim","4.06","","48","2","2","111","null","imgNWTK/triangle.png","imgNWTK/square.png","imgNWTK/triangle.png","130","90","","",""
"9220","","","bandit-task-exp6","59","1460236","0.0-10.0-0.3","female","18","Australia","79844","24895","imgNWTK/square.png","imgNWTK/triangle.png","imgNWTK/square.png","imgNWTK/triangle.png","noninfo","optim","4.06","","49","2","2","130","null","imgNWTK/square.png","imgNWTK/triangle.png","imgNWTK/triangle.png","100","130","","",""
"6021","","","bandit-task-exp6","60","1489276","0.0-10.0-0.4","female","18","Australia","79844","24895","imgNWTK/square.png","imgNWTK/triangle.png","imgNWTK/square.png","imgNWTK/triangle.png","noninfo","optim","4.06","","50","2","2","115","null","imgNWTK/triangle.png","imgNWTK/square.png","imgNWTK/triangle.png","130","100","","",""
"7077","","","bandit-task-exp6","61","1518500","0.0-10.0-0.5","female","18","Australia","79844","24895","imgNWTK/square.png","imgNWTK/triangle.png","imgNWTK/square.png","imgNWTK/triangle.png","noninfo","optim","4.06","","51","1","1","89","null","imgNWTK/triangle.png","imgNWTK/square.png","imgNWTK/square.png","130","100","","",""
"4820","","","bandit-task-exp6","62","1546556","0.0-10.0-0.6","female","18","Australia","79844","24895","imgNWTK/square.png","imgNWTK/triangle.png","imgNWTK/square.png","imgNWTK/triangle.png","noninfo","optim","4.06","","52","2","1","0","null","imgNWTK/square.png","imgNWTK/triangle.png","imgNWTK/triangle.png","90","130","","",""
"11643","","","bandit-task-exp6","63","1580540","0.0-10.0-0.7","female","18","Australia","79844","24895","imgNWTK/square.png","imgNWTK/triangle.png","imgNWTK/square.png","imgNWTK/triangle.png","noninfo","optim","4.06","","53","1","1","71","null","imgNWTK/triangle.png","imgNWTK/square.png","imgNWTK/square.png","0","0","","",""
"10675","","","bandit-task-exp6","64","1614427","0.0-10.0-0.8","female","18","Australia","79844","24895","imgNWTK/square.png","imgNWTK/triangle.png","imgNWTK/square.png","imgNWTK/triangle.png","noninfo","optim","4.06","","54","2","2","130","null","imgNWTK/square.png","imgNWTK/triangle.png","imgNWTK/triangle.png","80","100","","",""
"7324","","","bandit-task-exp6","65","1644155","0.0-10.0-0.9","female","18","Australia","79844","24895","imgNWTK/square.png","imgNWTK/triangle.png","imgNWTK/square.png","imgNWTK/triangle.png","noninfo","optim","4.06","","55","2","2","130","null","imgNWTK/triangle.png","imgNWTK/square.png","imgNWTK/triangle.png","170","100","","",""
"6276","","","bandit-task-exp6","66","1677115","0.0-10.0-0.10","female","18","Australia","79844","24895","imgNWTK/square.png","imgNWTK/triangle.png","imgNWTK/square.png","imgNWTK/triangle.png","noninfo","optim","4.06","","56","2","1","0","null","imgNWTK/square.png","imgNWTK/triangle.png","imgNWTK/triangle.png","100","170","","",""
"12676","","","bandit-task-exp6","67","1713388","0.0-10.0-0.11","female","18","Australia","79844","24895","imgNWTK/square.png","imgNWTK/triangle.png","imgNWTK/square.png","imgNWTK/triangle.png","noninfo","optim","4.06","","57","2","2","110","null","imgNWTK/triangle.png","imgNWTK/square.png","imgNWTK/triangle.png","130","70","","",""
"7379","","","bandit-task-exp6","68","1742876","0.0-10.0-0.12","female","18","Australia","79844","24895","imgNWTK/square.png","imgNWTK/triangle.png","imgNWTK/square.png","imgNWTK/triangle.png","noninfo","optim","4.06","","58","2","1","0","null","imgNWTK/square.png","imgNWTK/triangle.png","imgNWTK/triangle.png","90","130","","",""
"6036","","","bandit-task-exp6","69","1771532","0.0-10.0-0.13","female","18","Australia","79844","24895","imgNWTK/square.png","imgNWTK/triangle.png","imgNWTK/square.png","imgNWTK/triangle.png","noninfo","optim","4.06","","59","1","1","76","null","imgNWTK/square.png","imgNWTK/triangle.png","imgNWTK/square.png","90","0","","",""
"8644","","","bandit-task-exp6","70","1803115","0.0-10.0-0.14","female","18","Australia","79844","24895","imgNWTK/square.png","imgNWTK/triangle.png","imgNWTK/square.png","imgNWTK/triangle.png","noninfo","optim","4.06","","60","2","1","0","null","imgNWTK/triangle.png","imgNWTK/square.png","imgNWTK/triangle.png","130","70","","",""
"4519","<p> Congratulations, you have finished the main part of the experiment. </p><p>Before you finish, we have a few short questions about the options and outcomes you saw in the task.</p>","0","html-button-response","71","1807635","0.0-11.0","female","18","Australia","79844","24895","imgNWTK/square.png","imgNWTK/triangle.png","imgNWTK/square.png","imgNWTK/triangle.png","noninfo","optim","4.06","","","","","","","","","","","","","",""
"64373","<p><b>Now, imagine that you clicked on the below button for another 10 trials (this includes <i> BOTH WIN and NO-WIN trials</i>).</p> <img src= 'imgNWTK/triangle.png'></img></br></br> <p><b>Please type the reward (number of points) you would expect to receive on every trial.</br> Click start to begin.</p>","0","html-button-response","72","1872011","0.0-12.0","female","18","Australia","79844","24895","imgNWTK/square.png","imgNWTK/triangle.png","imgNWTK/square.png","imgNWTK/triangle.png","noninfo","optim","4.06","","","","","","","","","","","","","",""
"9401","","","survey-number","73","1881419","0.0-13.0-0.0","female","18","Australia","79844","24895","imgNWTK/square.png","imgNWTK/triangle.png","imgNWTK/square.png","imgNWTK/triangle.png","noninfo","optim","4.06","{""undefined"":""130""}","","","","","","","","","","","","imgNWTK/triangle.png",""
"4331.600000143051","","","survey-number","74","1885756","0.0-13.0-0.1","female","18","Australia","79844","24895","imgNWTK/square.png","imgNWTK/triangle.png","imgNWTK/square.png","imgNWTK/triangle.png","noninfo","optim","4.06","{""undefined"":""130""}","","","","","","","","","","","","imgNWTK/triangle.png",""
"7478.099999904633","","","survey-number","75","1893238","0.0-13.0-0.2","female","18","Australia","79844","24895","imgNWTK/square.png","imgNWTK/triangle.png","imgNWTK/square.png","imgNWTK/triangle.png","noninfo","optim","4.06","{""undefined"":""110""}","","","","","","","","","","","","imgNWTK/triangle.png",""
"1357.8000001907349","","","survey-number","76","1894601","0.0-13.0-0.3","female","18","Australia","79844","24895","imgNWTK/square.png","imgNWTK/triangle.png","imgNWTK/square.png","imgNWTK/triangle.png","noninfo","optim","4.06","{""undefined"":""0""}","","","","","","","","","","","","imgNWTK/triangle.png",""
"1802.9000000953674","","","survey-number","77","1896408","0.0-13.0-0.4","female","18","Australia","79844","24895","imgNWTK/square.png","imgNWTK/triangle.png","imgNWTK/square.png","imgNWTK/triangle.png","noninfo","optim","4.06","{""undefined"":""0""}","","","","","","","","","","","","imgNWTK/triangle.png",""
"6695.600000143051","","","survey-number","78","1903109","0.0-13.0-0.5","female","18","Australia","79844","24895","imgNWTK/square.png","imgNWTK/triangle.png","imgNWTK/square.png","imgNWTK/triangle.png","noninfo","optim","4.06","{""undefined"":""117""}","","","","","","","","","","","","imgNWTK/triangle.png",""
"1723.5999999046326","","","survey-number","79","1904837","0.0-13.0-0.6","female","18","Australia","79844","24895","imgNWTK/square.png","imgNWTK/triangle.png","imgNWTK/square.png","imgNWTK/triangle.png","noninfo","optim","4.06","{""undefined"":""130""}","","","","","","","","","","","","imgNWTK/triangle.png",""
"981.2999999523163","","","survey-number","80","1905822","0.0-13.0-0.7","female","18","Australia","79844","24895","imgNWTK/square.png","imgNWTK/triangle.png","imgNWTK/square.png","imgNWTK/triangle.png","noninfo","optim","4.06","{""undefined"":""130""}","","","","","","","","","","","","imgNWTK/triangle.png",""
"800.6999998092651","","","survey-number","81","1906627","0.0-13.0-0.8","female","18","Australia","79844","24895","imgNWTK/square.png","imgNWTK/triangle.png","imgNWTK/square.png","imgNWTK/triangle.png","noninfo","optim","4.06","{""undefined"":""130""}","","","","","","","","","","","","imgNWTK/triangle.png",""
"1214.4000000953674","","","survey-number","82","1907846","0.0-13.0-0.9","female","18","Australia","79844","24895","imgNWTK/square.png","imgNWTK/triangle.png","imgNWTK/square.png","imgNWTK/triangle.png","noninfo","optim","4.06","{""undefined"":""130""}","","","","","","","","","","","","imgNWTK/triangle.png",""
"6379","<p><b>Imagine that you clicked on the below button for another 10 trials (this includes <i> both WIN and NO-WIN trials</i>).</p> <img src= 'imgNWTK/square.png'></img></br></br> <p><b>Please type the reward (number of points) you would expect to receive on every trial.</br> Click start to begin.</p>","0","html-button-response","83","1914228","0.0-14.0","female","18","Australia","79844","24895","imgNWTK/square.png","imgNWTK/triangle.png","imgNWTK/square.png","imgNWTK/triangle.png","noninfo","optim","4.06","","","","","","","","","","","","","",""
"3653.4000000953674","","","survey-number","84","1917887","0.0-15.0-0.0","female","18","Australia","79844","24895","imgNWTK/square.png","imgNWTK/triangle.png","imgNWTK/square.png","imgNWTK/triangle.png","noninfo","optim","4.06","{""undefined"":""90""}","","","","","","","","","","","","imgNWTK/square.png",""
"3051.5","","","survey-number","85","1920943","0.0-15.0-0.1","female","18","Australia","79844","24895","imgNWTK/square.png","imgNWTK/triangle.png","imgNWTK/square.png","imgNWTK/triangle.png","noninfo","optim","4.06","{""undefined"":""0""}","","","","","","","","","","","","imgNWTK/square.png",""
"2051.4000000953674","","","survey-number","86","1922999","0.0-15.0-0.2","female","18","Australia","79844","24895","imgNWTK/square.png","imgNWTK/triangle.png","imgNWTK/square.png","imgNWTK/triangle.png","noninfo","optim","4.06","{""undefined"":""0""}","","","","","","","","","","","","imgNWTK/square.png",""
"1956.2000000476837","","","survey-number","87","1924960","0.0-15.0-0.3","female","18","Australia","79844","24895","imgNWTK/square.png","imgNWTK/triangle.png","imgNWTK/square.png","imgNWTK/triangle.png","noninfo","optim","4.06","{""undefined"":""100""}","","","","","","","","","","","","imgNWTK/square.png",""
"2087.2000000476837","","","survey-number","88","1927051","0.0-15.0-0.4","female","18","Australia","79844","24895","imgNWTK/square.png","imgNWTK/triangle.png","imgNWTK/square.png","imgNWTK/triangle.png","noninfo","optim","4.06","{""undefined"":""117""}","","","","","","","","","","","","imgNWTK/square.png",""
"1010.2000000476837","","","survey-number","89","1928066","0.0-15.0-0.5","female","18","Australia","79844","24895","imgNWTK/square.png","imgNWTK/triangle.png","imgNWTK/square.png","imgNWTK/triangle.png","noninfo","optim","4.06","{""undefined"":""90""}","","","","","","","","","","","","imgNWTK/square.png",""
"1189.5999999046326","","","survey-number","90","1929260","0.0-15.0-0.6","female","18","Australia","79844","24895","imgNWTK/square.png","imgNWTK/triangle.png","imgNWTK/square.png","imgNWTK/triangle.png","noninfo","optim","4.06","{""undefined"":""90""}","","","","","","","","","","","","imgNWTK/square.png",""
"1383.5","","","survey-number","91","1930648","0.0-15.0-0.7","female","18","Australia","79844","24895","imgNWTK/square.png","imgNWTK/triangle.png","imgNWTK/square.png","imgNWTK/triangle.png","noninfo","optim","4.06","{""undefined"":""0""}","","","","","","","","","","","","imgNWTK/square.png",""
"1344.1000001430511","","","survey-number","92","1931996","0.0-15.0-0.8","female","18","Australia","79844","24895","imgNWTK/square.png","imgNWTK/triangle.png","imgNWTK/square.png","imgNWTK/triangle.png","noninfo","optim","4.06","{""undefined"":""0""}","","","","","","","","","","","","imgNWTK/square.png",""
"3971.2000000476837","","","survey-number","93","1935972","0.0-15.0-0.9","female","18","Australia","79844","24895","imgNWTK/square.png","imgNWTK/triangle.png","imgNWTK/square.png","imgNWTK/triangle.png","noninfo","optim","4.06","{""undefined"":""100""}","","","","","","","","","","","","imgNWTK/square.png",""
"26368.200000047684","","","survey-number","94","1962355","0.0-16.0","female","18","Australia","79844","24895","imgNWTK/square.png","imgNWTK/triangle.png","imgNWTK/square.png","imgNWTK/triangle.png","noninfo","optim","4.06","{""undefined"":""76""}","","","","","","","","","","","","","imgNWTK/square.png"
"4492.399999856949","","","survey-number","95","1966852","0.0-17.0","female","18","Australia","79844","24895","imgNWTK/square.png","imgNWTK/triangle.png","imgNWTK/square.png","imgNWTK/triangle.png","noninfo","optim","4.06","{""undefined"":""117""}","","","","","","","","","","","","","imgNWTK/triangle.png"
"36470","<p style=""text-align:left;"">Great! We are almost at the end of the study... (Please do not close the browser window yet.)</p><p> Your final points balance is 4062, which equals to a bonus payment of $4.06. The payment can be collected from MAT721; please email amy.x.li@unsw.edu.au at least 24 hours prior to collection so that this is ready for you.</p><p style=""text-align:left;"">To view the debriefing form, please click <a href=""./imgNWTK/debrief_3205.pdf"" target=""_blank"">here</a> to download a copy.</p><p style=""text-align:left;"">Then, <b>please click the below button</b> to confirm that you have received your debrief and to complete the study. Upon clicking ""Finish!"", your SONA credit will be automatically assigned.</p>","0","html-button-response","96","2003324","0.0-18.0","female","18","Australia","79844","24895","imgNWTK/square.png","imgNWTK/triangle.png","imgNWTK/square.png","imgNWTK/triangle.png","noninfo","optim","4.06","","","","","","","","","","","","","",""
