"rt","stimulus","button_pressed","trial_type","trial_index","time_elapsed","internal_node_id","gender","age","language","PID","sona_id","subStim","optStim","stim1","stim2","infoCond","optimCond","bonus","responses","banditTrial","choice","cue","feedback","estimateData","leftOption","rightOption","choiceName","leftInput","rightInput","key_press","postQ","singleEst"
"111539","<p>Thank you for signing up to participate in SONA Study 465! <br> During this study, please focus on the experiment and refrain from activities such as:</p>- <b>Switching to other tabs on your browser (this will be monitored via the experiment)</br> - Using your mobile phone/cell phone</br> - Communicating with others</br></br></b><p>This way, you are helping to provide data that is useful for psychological research. We thank you for your cooperation!</p>","0","html-button-response","0","111546","0.0-0.0","female","20","China","96991","26494","neither","neither","imgNWTK/KeepItSecret.jpg","imgNWTK/FindOutNow.jpg","info","eq","2.91","","","","","","","","","","","","","",""
"151808","<p>Welcome to the experiment!</p><p>You will now read some instructions about the task. Press the 'Next' button to continue. </p>","0","html-button-response","1","263357","0.0-1.0","female","20","China","96991","26494","neither","neither","imgNWTK/KeepItSecret.jpg","imgNWTK/FindOutNow.jpg","info","eq","2.91","","","","","","","","","","","","","",""
"13313","<p> On each trial throughout the experiment you will choose between the options </br><b> Find Out Now </b> and <b> Keep It Secret </b>, as shown below.</p><div><div style= 'float: left; width: 300px; margin: 10px 10px;'><img src= 'imgNWTK/KeepItSecret.jpg'></img></div><div style= 'float: right; width: 300px; margin: 10px 10px;'><img src= 'imgNWTK/FindOutNow.jpg'></img></div></div><br/><br/><br/><br/><br/><br/><br/><br/><br/><br/><br/><p>Each option results in winning points or receiving 0 points.</br>There is a 50% chance of either winning or receiving 0 points.</p><p>You won't receive the outcome until after a <b> 20 second delay</b>. However, selecting the Find Out Now option will allow you to find out about the outcome early, whereas the Keep It Secret option will not. </p>","0","html-button-response","2","276674","0.0-2.0-0.0","female","20","China","96991","26494","neither","neither","imgNWTK/KeepItSecret.jpg","imgNWTK/FindOutNow.jpg","info","eq","2.91","","","","","","","","","","","","","",""
"23130","<img src= 'cues/Experiment6.png'></img><p>As seen above, when choosing the <b>'Find Out Now'</b> option, you will receive either a happy face or sad face.</br>The happy face means you will win points after the delay, whereas the sad face means you will receive 0 points.</br></p><p> When choosing the <b> 'Keep it Secret' </b> option you will receive a confused face.</br> This face appears regardless of whether you are going to win points or not. </p>In short, choosing 'Find Out Now' allows you to find out the outcome before you experience it (after the delay).</br></br>","0","html-button-response","3","299807","0.0-2.0-1.0","female","20","China","96991","26494","neither","neither","imgNWTK/KeepItSecret.jpg","imgNWTK/FindOutNow.jpg","info","eq","2.91","","","","","","","","","","","","","",""
"9896","<img src= 'cues/winTrials_info.png' width = '1200'></img><p>To reiterate, 50% of the outcomes of each option will be WIN TRIALS, and the other 50% will be NO-WIN TRIALS.","0","html-button-response","4","309707","0.0-2.0-2.0","female","20","China","96991","26494","neither","neither","imgNWTK/KeepItSecret.jpg","imgNWTK/FindOutNow.jpg","info","eq","2.91","","","","","","","","","","","","","",""
"7546","<p> There will be <b>four blocks</b> in the experiment.</br>You will be given a short 15 second break between each block.</p><p><b>The points and the options will remain the same between the blocks.</b></p>The blocks are there just to give you a small break.</br></br><p>The points you earn in the task are also equal to <b> actual money</b>.</br> <b>1000 points is equal to $1.</b></p><p>This is the rate you will be paid at the experiment's end.","0","html-button-response","5","317257","0.0-2.0-3.0","female","20","China","96991","26494","neither","neither","imgNWTK/KeepItSecret.jpg","imgNWTK/FindOutNow.jpg","info","eq","2.91","","","","","","","","","","","","","",""
"27568","","","survey-multi-choice","6","344842","0.0-2.0-4.0","female","20","China","96991","26494","neither","neither","imgNWTK/KeepItSecret.jpg","imgNWTK/FindOutNow.jpg","info","eq","2.91","{""Q0"":""20 Seconds"",""Q1"":""True"",""Q2"":""Equally"",""Q3"":""True""}","","","","","","","","","","","","",""
"2976","<p> Well done, all your answers were correct! <br> The experiment is about to start now. <br/> Click start to continue, or email your researcher <b>(amy.x.li@unsw.edu.au)</b> if you have any questions before starting.","0","html-button-response","7","347823","0.0-3.0","female","20","China","96991","26494","neither","neither","imgNWTK/KeepItSecret.jpg","imgNWTK/FindOutNow.jpg","info","eq","2.91","","","","","","","","","","","","","",""
"3041","","","bandit-task-exp6","8","374506","0.0-4.0-0.0","female","20","China","96991","26494","neither","neither","imgNWTK/KeepItSecret.jpg","imgNWTK/FindOutNow.jpg","info","eq","2.91","","1","1","1","94","null","imgNWTK/FindOutNow.jpg","imgNWTK/KeepItSecret.jpg","imgNWTK/KeepItSecret.jpg","NaN","NaN","","",""
"2808","","","bandit-task-exp6","9","400356","0.0-4.0-0.1","female","20","China","96991","26494","neither","neither","imgNWTK/KeepItSecret.jpg","imgNWTK/FindOutNow.jpg","info","eq","2.91","","2","1","2","0","null","imgNWTK/KeepItSecret.jpg","imgNWTK/FindOutNow.jpg","imgNWTK/KeepItSecret.jpg","NaN","NaN","","",""
"3142","","","bandit-task-exp6","10","427019","0.0-4.0-0.2","female","20","China","96991","26494","neither","neither","imgNWTK/KeepItSecret.jpg","imgNWTK/FindOutNow.jpg","info","eq","2.91","","3","1","1","110","null","imgNWTK/FindOutNow.jpg","imgNWTK/KeepItSecret.jpg","imgNWTK/KeepItSecret.jpg","NaN","NaN","","",""
"6048","","","bandit-task-exp6","11","462572","0.0-4.0-0.3","female","20","China","96991","26494","neither","neither","imgNWTK/KeepItSecret.jpg","imgNWTK/FindOutNow.jpg","info","eq","2.91","","4","2","1","0","null","imgNWTK/KeepItSecret.jpg","imgNWTK/FindOutNow.jpg","imgNWTK/FindOutNow.jpg","NaN","NaN","","",""
"1776","","","bandit-task-exp6","12","487305","0.0-4.0-0.4","female","20","China","96991","26494","neither","neither","imgNWTK/KeepItSecret.jpg","imgNWTK/FindOutNow.jpg","info","eq","2.91","","5","1","1","93","null","imgNWTK/KeepItSecret.jpg","imgNWTK/FindOutNow.jpg","imgNWTK/KeepItSecret.jpg","NaN","NaN","","",""
"1628","","","bandit-task-exp6","13","512053","0.0-4.0-0.5","female","20","China","96991","26494","neither","neither","imgNWTK/KeepItSecret.jpg","imgNWTK/FindOutNow.jpg","info","eq","2.91","","6","1","1","97","null","imgNWTK/FindOutNow.jpg","imgNWTK/KeepItSecret.jpg","imgNWTK/KeepItSecret.jpg","NaN","NaN","","",""
"2329","","","bandit-task-exp6","14","537936","0.0-4.0-0.6","female","20","China","96991","26494","neither","neither","imgNWTK/KeepItSecret.jpg","imgNWTK/FindOutNow.jpg","info","eq","2.91","","7","2","2","93","null","imgNWTK/KeepItSecret.jpg","imgNWTK/FindOutNow.jpg","imgNWTK/FindOutNow.jpg","NaN","NaN","","",""
"1462","","","bandit-task-exp6","15","562320","0.0-4.0-0.7","female","20","China","96991","26494","neither","neither","imgNWTK/KeepItSecret.jpg","imgNWTK/FindOutNow.jpg","info","eq","2.91","","8","2","2","95","null","imgNWTK/KeepItSecret.jpg","imgNWTK/FindOutNow.jpg","imgNWTK/FindOutNow.jpg","NaN","NaN","","",""
"1711","","","bandit-task-exp6","16","587152","0.0-4.0-0.8","female","20","China","96991","26494","neither","neither","imgNWTK/KeepItSecret.jpg","imgNWTK/FindOutNow.jpg","info","eq","2.91","","9","1","2","0","null","imgNWTK/FindOutNow.jpg","imgNWTK/KeepItSecret.jpg","imgNWTK/KeepItSecret.jpg","NaN","NaN","","",""
"612","","","bandit-task-exp6","17","610652","0.0-4.0-0.9","female","20","China","96991","26494","neither","neither","imgNWTK/KeepItSecret.jpg","imgNWTK/FindOutNow.jpg","info","eq","2.91","","10","2","2","96","null","imgNWTK/KeepItSecret.jpg","imgNWTK/FindOutNow.jpg","imgNWTK/FindOutNow.jpg","NaN","NaN","","",""
"996","","","bandit-task-exp6","18","634453","0.0-4.0-0.10","female","20","China","96991","26494","neither","neither","imgNWTK/KeepItSecret.jpg","imgNWTK/FindOutNow.jpg","info","eq","2.91","","11","1","2","0","null","imgNWTK/FindOutNow.jpg","imgNWTK/KeepItSecret.jpg","imgNWTK/KeepItSecret.jpg","NaN","NaN","","",""
"1078","","","bandit-task-exp6","19","658353","0.0-4.0-0.11","female","20","China","96991","26494","neither","neither","imgNWTK/KeepItSecret.jpg","imgNWTK/FindOutNow.jpg","info","eq","2.91","","12","2","1","0","null","imgNWTK/KeepItSecret.jpg","imgNWTK/FindOutNow.jpg","imgNWTK/FindOutNow.jpg","NaN","NaN","","",""
"877","","","bandit-task-exp6","20","687218","0.0-4.0-0.12","female","20","China","96991","26494","neither","neither","imgNWTK/KeepItSecret.jpg","imgNWTK/FindOutNow.jpg","info","eq","2.91","","13","1","2","0","null","imgNWTK/KeepItSecret.jpg","imgNWTK/FindOutNow.jpg","imgNWTK/KeepItSecret.jpg","NaN","NaN","","",""
"662","","","bandit-task-exp6","21","710901","0.0-4.0-0.13","female","20","China","96991","26494","neither","neither","imgNWTK/KeepItSecret.jpg","imgNWTK/FindOutNow.jpg","info","eq","2.91","","14","1","2","0","null","imgNWTK/KeepItSecret.jpg","imgNWTK/FindOutNow.jpg","imgNWTK/KeepItSecret.jpg","NaN","NaN","","",""
"779","","","bandit-task-exp6","22","735418","0.0-4.0-0.14","female","20","China","96991","26494","neither","neither","imgNWTK/KeepItSecret.jpg","imgNWTK/FindOutNow.jpg","info","eq","2.91","","15","1","2","0","null","imgNWTK/FindOutNow.jpg","imgNWTK/KeepItSecret.jpg","imgNWTK/KeepItSecret.jpg","NaN","NaN","","",""
"null","<p><b> Congratulations, you have finished this block. </b> </p><p>Please take a short break before moving onto the next block.</p><p>The next block will start after a 15 second break.</p><b>Remember, the point rewards are the same between blocks","","html-keyboard-response","23","750424","0.0-5.0","female","20","China","96991","26494","neither","neither","imgNWTK/KeepItSecret.jpg","imgNWTK/FindOutNow.jpg","info","eq","2.91","","","","","","","","","","","","null","",""
"47320","","","bandit-task-exp6","24","820900","0.0-6.0-0.0","female","20","China","96991","26494","neither","neither","imgNWTK/KeepItSecret.jpg","imgNWTK/FindOutNow.jpg","info","eq","2.91","","16","2","1","0","null","imgNWTK/KeepItSecret.jpg","imgNWTK/FindOutNow.jpg","imgNWTK/FindOutNow.jpg","NaN","NaN","","",""
"1679","","","bandit-task-exp6","25","844949","0.0-6.0-0.1","female","20","China","96991","26494","neither","neither","imgNWTK/KeepItSecret.jpg","imgNWTK/FindOutNow.jpg","info","eq","2.91","","17","2","1","0","null","imgNWTK/KeepItSecret.jpg","imgNWTK/FindOutNow.jpg","imgNWTK/FindOutNow.jpg","NaN","NaN","","",""
"812","","","bandit-task-exp6","26","871716","0.0-6.0-0.2","female","20","China","96991","26494","neither","neither","imgNWTK/KeepItSecret.jpg","imgNWTK/FindOutNow.jpg","info","eq","2.91","","18","1","2","0","null","imgNWTK/FindOutNow.jpg","imgNWTK/KeepItSecret.jpg","imgNWTK/KeepItSecret.jpg","NaN","NaN","","",""
"628","","","bandit-task-exp6","27","905482","0.0-6.0-0.3","female","20","China","96991","26494","neither","neither","imgNWTK/KeepItSecret.jpg","imgNWTK/FindOutNow.jpg","info","eq","2.91","","19","1","2","0","null","imgNWTK/FindOutNow.jpg","imgNWTK/KeepItSecret.jpg","imgNWTK/KeepItSecret.jpg","NaN","NaN","","",""
"1561","","","bandit-task-exp6","28","929582","0.0-6.0-0.4","female","20","China","96991","26494","neither","neither","imgNWTK/KeepItSecret.jpg","imgNWTK/FindOutNow.jpg","info","eq","2.91","","20","2","2","110","null","imgNWTK/KeepItSecret.jpg","imgNWTK/FindOutNow.jpg","imgNWTK/FindOutNow.jpg","NaN","NaN","","",""
"728","","","bandit-task-exp6","29","952998","0.0-6.0-0.5","female","20","China","96991","26494","neither","neither","imgNWTK/KeepItSecret.jpg","imgNWTK/FindOutNow.jpg","info","eq","2.91","","21","1","1","99","null","imgNWTK/FindOutNow.jpg","imgNWTK/KeepItSecret.jpg","imgNWTK/KeepItSecret.jpg","NaN","NaN","","",""
"979","","","bandit-task-exp6","30","976016","0.0-6.0-0.6","female","20","China","96991","26494","neither","neither","imgNWTK/KeepItSecret.jpg","imgNWTK/FindOutNow.jpg","info","eq","2.91","","22","2","2","90","null","imgNWTK/KeepItSecret.jpg","imgNWTK/FindOutNow.jpg","imgNWTK/FindOutNow.jpg","NaN","NaN","","",""
"727","","","bandit-task-exp6","31","998681","0.0-6.0-0.7","female","20","China","96991","26494","neither","neither","imgNWTK/KeepItSecret.jpg","imgNWTK/FindOutNow.jpg","info","eq","2.91","","23","1","1","103","null","imgNWTK/KeepItSecret.jpg","imgNWTK/FindOutNow.jpg","imgNWTK/KeepItSecret.jpg","NaN","NaN","","",""
"662","","","bandit-task-exp6","32","1022014","0.0-6.0-0.8","female","20","China","96991","26494","neither","neither","imgNWTK/KeepItSecret.jpg","imgNWTK/FindOutNow.jpg","info","eq","2.91","","24","1","2","0","null","imgNWTK/KeepItSecret.jpg","imgNWTK/FindOutNow.jpg","imgNWTK/KeepItSecret.jpg","NaN","NaN","","",""
"1295","","","bandit-task-exp6","33","1046298","0.0-6.0-0.9","female","20","China","96991","26494","neither","neither","imgNWTK/KeepItSecret.jpg","imgNWTK/FindOutNow.jpg","info","eq","2.91","","25","2","2","103","null","imgNWTK/KeepItSecret.jpg","imgNWTK/FindOutNow.jpg","imgNWTK/FindOutNow.jpg","NaN","NaN","","",""
"745","","","bandit-task-exp6","34","1069530","0.0-6.0-0.10","female","20","China","96991","26494","neither","neither","imgNWTK/KeepItSecret.jpg","imgNWTK/FindOutNow.jpg","info","eq","2.91","","26","2","2","94","null","imgNWTK/KeepItSecret.jpg","imgNWTK/FindOutNow.jpg","imgNWTK/FindOutNow.jpg","NaN","NaN","","",""
"728","","","bandit-task-exp6","35","1093431","0.0-6.0-0.11","female","20","China","96991","26494","neither","neither","imgNWTK/KeepItSecret.jpg","imgNWTK/FindOutNow.jpg","info","eq","2.91","","27","2","1","0","null","imgNWTK/KeepItSecret.jpg","imgNWTK/FindOutNow.jpg","imgNWTK/FindOutNow.jpg","NaN","NaN","","",""
"1229","","","bandit-task-exp6","36","1117413","0.0-6.0-0.12","female","20","China","96991","26494","neither","neither","imgNWTK/KeepItSecret.jpg","imgNWTK/FindOutNow.jpg","info","eq","2.91","","28","1","1","102","null","imgNWTK/FindOutNow.jpg","imgNWTK/KeepItSecret.jpg","imgNWTK/KeepItSecret.jpg","NaN","NaN","","",""
"1178","","","bandit-task-exp6","37","1142047","0.0-6.0-0.13","female","20","China","96991","26494","neither","neither","imgNWTK/KeepItSecret.jpg","imgNWTK/FindOutNow.jpg","info","eq","2.91","","29","2","1","0","null","imgNWTK/KeepItSecret.jpg","imgNWTK/FindOutNow.jpg","imgNWTK/FindOutNow.jpg","NaN","NaN","","",""
"978","","","bandit-task-exp6","38","1165631","0.0-6.0-0.14","female","20","China","96991","26494","neither","neither","imgNWTK/KeepItSecret.jpg","imgNWTK/FindOutNow.jpg","info","eq","2.91","","30","2","2","103","null","imgNWTK/KeepItSecret.jpg","imgNWTK/FindOutNow.jpg","imgNWTK/FindOutNow.jpg","NaN","NaN","","",""
"null","<p><b> Congratulations, you have finished this block. </b> </p><p>Please take a short break before moving onto the next block.</p><p>The next block will start after a 15 second break.</p><b>Remember, the point rewards are the same between blocks","","html-keyboard-response","39","1180636","0.0-7.0","female","20","China","96991","26494","neither","neither","imgNWTK/KeepItSecret.jpg","imgNWTK/FindOutNow.jpg","info","eq","2.91","","","","","","","","","","","","null","",""
"1038","","","bandit-task-exp6","40","1205153","0.0-8.0-0.0","female","20","China","96991","26494","neither","neither","imgNWTK/KeepItSecret.jpg","imgNWTK/FindOutNow.jpg","info","eq","2.91","","31","2","2","110","null","imgNWTK/KeepItSecret.jpg","imgNWTK/FindOutNow.jpg","imgNWTK/FindOutNow.jpg","NaN","NaN","","",""
"877","","","bandit-task-exp6","41","1229400","0.0-8.0-0.1","female","20","China","96991","26494","neither","neither","imgNWTK/KeepItSecret.jpg","imgNWTK/FindOutNow.jpg","info","eq","2.91","","32","1","1","93","null","imgNWTK/FindOutNow.jpg","imgNWTK/KeepItSecret.jpg","imgNWTK/KeepItSecret.jpg","NaN","NaN","","",""
"1511","","","bandit-task-exp6","42","1253281","0.0-8.0-0.2","female","20","China","96991","26494","neither","neither","imgNWTK/KeepItSecret.jpg","imgNWTK/FindOutNow.jpg","info","eq","2.91","","33","1","2","0","null","imgNWTK/FindOutNow.jpg","imgNWTK/KeepItSecret.jpg","imgNWTK/KeepItSecret.jpg","NaN","NaN","","",""
"862","","","bandit-task-exp6","43","1324014","0.0-8.0-0.3","female","20","China","96991","26494","neither","neither","imgNWTK/KeepItSecret.jpg","imgNWTK/FindOutNow.jpg","info","eq","2.91","","34","2","2","95","null","imgNWTK/KeepItSecret.jpg","imgNWTK/FindOutNow.jpg","imgNWTK/FindOutNow.jpg","NaN","NaN","","",""
"844","","","bandit-task-exp6","44","1347579","0.0-8.0-0.4","female","20","China","96991","26494","neither","neither","imgNWTK/KeepItSecret.jpg","imgNWTK/FindOutNow.jpg","info","eq","2.91","","35","2","1","0","null","imgNWTK/KeepItSecret.jpg","imgNWTK/FindOutNow.jpg","imgNWTK/FindOutNow.jpg","NaN","NaN","","",""
"929","","","bandit-task-exp6","45","1371946","0.0-8.0-0.5","female","20","China","96991","26494","neither","neither","imgNWTK/KeepItSecret.jpg","imgNWTK/FindOutNow.jpg","info","eq","2.91","","36","1","2","0","null","imgNWTK/FindOutNow.jpg","imgNWTK/KeepItSecret.jpg","imgNWTK/KeepItSecret.jpg","NaN","NaN","","",""
"762","","","bandit-task-exp6","46","1396080","0.0-8.0-0.6","female","20","China","96991","26494","neither","neither","imgNWTK/KeepItSecret.jpg","imgNWTK/FindOutNow.jpg","info","eq","2.91","","37","2","1","0","null","imgNWTK/KeepItSecret.jpg","imgNWTK/FindOutNow.jpg","imgNWTK/FindOutNow.jpg","NaN","NaN","","",""
"3162","","","bandit-task-exp6","47","1422146","0.0-8.0-0.7","female","20","China","96991","26494","neither","neither","imgNWTK/KeepItSecret.jpg","imgNWTK/FindOutNow.jpg","info","eq","2.91","","38","2","1","0","null","imgNWTK/KeepItSecret.jpg","imgNWTK/FindOutNow.jpg","imgNWTK/FindOutNow.jpg","NaN","NaN","","",""
"1162","","","bandit-task-exp6","48","1445829","0.0-8.0-0.8","female","20","China","96991","26494","neither","neither","imgNWTK/KeepItSecret.jpg","imgNWTK/FindOutNow.jpg","info","eq","2.91","","39","2","1","0","null","imgNWTK/KeepItSecret.jpg","imgNWTK/FindOutNow.jpg","imgNWTK/FindOutNow.jpg","NaN","NaN","","",""
"695","","","bandit-task-exp6","49","1548977","0.0-8.0-0.9","female","20","China","96991","26494","neither","neither","imgNWTK/KeepItSecret.jpg","imgNWTK/FindOutNow.jpg","info","eq","2.91","","40","2","1","0","null","imgNWTK/KeepItSecret.jpg","imgNWTK/FindOutNow.jpg","imgNWTK/FindOutNow.jpg","NaN","NaN","","",""
"1079","","","bandit-task-exp6","50","1606843","0.0-8.0-0.10","female","20","China","96991","26494","neither","neither","imgNWTK/KeepItSecret.jpg","imgNWTK/FindOutNow.jpg","info","eq","2.91","","41","1","1","96","null","imgNWTK/FindOutNow.jpg","imgNWTK/KeepItSecret.jpg","imgNWTK/KeepItSecret.jpg","NaN","NaN","","",""
"779","","","bandit-task-exp6","51","1694558","0.0-8.0-0.11","female","20","China","96991","26494","neither","neither","imgNWTK/KeepItSecret.jpg","imgNWTK/FindOutNow.jpg","info","eq","2.91","","42","2","1","0","null","imgNWTK/KeepItSecret.jpg","imgNWTK/FindOutNow.jpg","imgNWTK/FindOutNow.jpg","NaN","NaN","","",""
"762","","","bandit-task-exp6","52","1750775","0.0-8.0-0.12","female","20","China","96991","26494","neither","neither","imgNWTK/KeepItSecret.jpg","imgNWTK/FindOutNow.jpg","info","eq","2.91","","43","2","1","0","null","imgNWTK/KeepItSecret.jpg","imgNWTK/FindOutNow.jpg","imgNWTK/FindOutNow.jpg","NaN","NaN","","",""
"894","","","bandit-task-exp6","53","1944005","0.0-8.0-0.13","female","20","China","96991","26494","neither","neither","imgNWTK/KeepItSecret.jpg","imgNWTK/FindOutNow.jpg","info","eq","2.91","","44","2","2","102","null","imgNWTK/KeepItSecret.jpg","imgNWTK/FindOutNow.jpg","imgNWTK/FindOutNow.jpg","NaN","NaN","","",""
"679","","","bandit-task-exp6","54","1990671","0.0-8.0-0.14","female","20","China","96991","26494","neither","neither","imgNWTK/KeepItSecret.jpg","imgNWTK/FindOutNow.jpg","info","eq","2.91","","45","1","2","0","null","imgNWTK/FindOutNow.jpg","imgNWTK/KeepItSecret.jpg","imgNWTK/KeepItSecret.jpg","NaN","NaN","","",""
"null","<p><b> Congratulations, you have finished this block. </b> </p><p>Please take a short break before moving onto the next block.</p><p>The next block will start after a 15 second break.</p><b>Remember, the point rewards are the same between blocks","","html-keyboard-response","55","2005678","0.0-9.0","female","20","China","96991","26494","neither","neither","imgNWTK/KeepItSecret.jpg","imgNWTK/FindOutNow.jpg","info","eq","2.91","","","","","","","","","","","","null","",""
"23402","","","bandit-task-exp6","56","2052703","0.0-10.0-0.0","female","20","China","96991","26494","neither","neither","imgNWTK/KeepItSecret.jpg","imgNWTK/FindOutNow.jpg","info","eq","2.91","","46","1","2","0","null","imgNWTK/FindOutNow.jpg","imgNWTK/KeepItSecret.jpg","imgNWTK/KeepItSecret.jpg","66","109","","",""
"6478","","","bandit-task-exp6","57","2083602","0.0-10.0-0.1","female","20","China","96991","26494","neither","neither","imgNWTK/KeepItSecret.jpg","imgNWTK/FindOutNow.jpg","info","eq","2.91","","47","2","2","109","null","imgNWTK/FindOutNow.jpg","imgNWTK/KeepItSecret.jpg","imgNWTK/FindOutNow.jpg","0","0","","",""
"7945","","","bandit-task-exp6","58","2162001","0.0-10.0-0.2","female","20","China","96991","26494","neither","neither","imgNWTK/KeepItSecret.jpg","imgNWTK/FindOutNow.jpg","info","eq","2.91","","48","2","2","94","null","imgNWTK/KeepItSecret.jpg","imgNWTK/FindOutNow.jpg","imgNWTK/FindOutNow.jpg","200","88","","",""
"12578","","","bandit-task-exp6","59","2200334","0.0-10.0-0.3","female","20","China","96991","26494","neither","neither","imgNWTK/KeepItSecret.jpg","imgNWTK/FindOutNow.jpg","info","eq","2.91","","49","1","2","0","null","imgNWTK/KeepItSecret.jpg","imgNWTK/FindOutNow.jpg","imgNWTK/KeepItSecret.jpg","68","94","","",""
"10078","","","bandit-task-exp6","60","2246850","0.0-10.0-0.4","female","20","China","96991","26494","neither","neither","imgNWTK/KeepItSecret.jpg","imgNWTK/FindOutNow.jpg","info","eq","2.91","","50","1","2","0","null","imgNWTK/FindOutNow.jpg","imgNWTK/KeepItSecret.jpg","imgNWTK/KeepItSecret.jpg","87","109","","",""
"5728","","","bandit-task-exp6","61","2277383","0.0-10.0-0.5","female","20","China","96991","26494","neither","neither","imgNWTK/KeepItSecret.jpg","imgNWTK/FindOutNow.jpg","info","eq","2.91","","51","2","2","100","null","imgNWTK/KeepItSecret.jpg","imgNWTK/FindOutNow.jpg","imgNWTK/FindOutNow.jpg","55","88","","",""
"11461","","","bandit-task-exp6","62","2317133","0.0-10.0-0.6","female","20","China","96991","26494","neither","neither","imgNWTK/KeepItSecret.jpg","imgNWTK/FindOutNow.jpg","info","eq","2.91","","52","1","1","104","null","imgNWTK/FindOutNow.jpg","imgNWTK/KeepItSecret.jpg","imgNWTK/KeepItSecret.jpg","66","33","","",""
"8760","","","bandit-task-exp6","63","2370449","0.0-10.0-0.7","female","20","China","96991","26494","neither","neither","imgNWTK/KeepItSecret.jpg","imgNWTK/FindOutNow.jpg","info","eq","2.91","","53","2","2","107","null","imgNWTK/FindOutNow.jpg","imgNWTK/KeepItSecret.jpg","imgNWTK/FindOutNow.jpg","90","47","","",""
"8378","","","bandit-task-exp6","64","2404065","0.0-10.0-0.8","female","20","China","96991","26494","neither","neither","imgNWTK/KeepItSecret.jpg","imgNWTK/FindOutNow.jpg","info","eq","2.91","","54","2","2","106","null","imgNWTK/FindOutNow.jpg","imgNWTK/KeepItSecret.jpg","imgNWTK/FindOutNow.jpg","322","109","","",""
"30127","","","bandit-task-exp6","65","2459348","0.0-10.0-0.9","female","20","China","96991","26494","neither","neither","imgNWTK/KeepItSecret.jpg","imgNWTK/FindOutNow.jpg","info","eq","2.91","","55","1","1","106","null","imgNWTK/KeepItSecret.jpg","imgNWTK/FindOutNow.jpg","imgNWTK/KeepItSecret.jpg","477","900","","",""
"13059","","","bandit-task-exp6","66","2500664","0.0-10.0-0.10","female","20","China","96991","26494","neither","neither","imgNWTK/KeepItSecret.jpg","imgNWTK/FindOutNow.jpg","info","eq","2.91","","56","2","2","97","null","imgNWTK/FindOutNow.jpg","imgNWTK/KeepItSecret.jpg","imgNWTK/FindOutNow.jpg","390","677","","",""
"7144","","","bandit-task-exp6","67","2533965","0.0-10.0-0.11","female","20","China","96991","26494","neither","neither","imgNWTK/KeepItSecret.jpg","imgNWTK/FindOutNow.jpg","info","eq","2.91","","57","1","2","0","null","imgNWTK/FindOutNow.jpg","imgNWTK/KeepItSecret.jpg","imgNWTK/KeepItSecret.jpg","200","49","","",""
"6277","","","bandit-task-exp6","68","2563164","0.0-10.0-0.12","female","20","China","96991","26494","neither","neither","imgNWTK/KeepItSecret.jpg","imgNWTK/FindOutNow.jpg","info","eq","2.91","","58","1","2","0","null","imgNWTK/KeepItSecret.jpg","imgNWTK/FindOutNow.jpg","imgNWTK/KeepItSecret.jpg","266","833","","",""
"5827","","","bandit-task-exp6","69","2591330","0.0-10.0-0.13","female","20","China","96991","26494","neither","neither","imgNWTK/KeepItSecret.jpg","imgNWTK/FindOutNow.jpg","info","eq","2.91","","59","2","1","0","null","imgNWTK/FindOutNow.jpg","imgNWTK/KeepItSecret.jpg","imgNWTK/FindOutNow.jpg","100","899","","",""
"7594","","","bandit-task-exp6","70","2620930","0.0-10.0-0.14","female","20","China","96991","26494","neither","neither","imgNWTK/KeepItSecret.jpg","imgNWTK/FindOutNow.jpg","info","eq","2.91","","60","1","1","106","null","imgNWTK/KeepItSecret.jpg","imgNWTK/FindOutNow.jpg","imgNWTK/KeepItSecret.jpg","289","390","","",""
"2213","<p> Congratulations, you have finished the main part of the experiment. </p><p>Before you finish, we have a few short questions about the options and outcomes you saw in the task.</p>","0","html-button-response","71","2623147","0.0-11.0","female","20","China","96991","26494","neither","neither","imgNWTK/KeepItSecret.jpg","imgNWTK/FindOutNow.jpg","info","eq","2.91","","","","","","","","","","","","","",""
"6779","<p><b>Now, imagine that you clicked on the below button for another 10 trials (this includes <i> BOTH WIN and NO-WIN trials</i>).</p> <img src= 'imgNWTK/KeepItSecret.jpg'></img></br></br> <p><b>Please type the reward (number of points) you would expect to receive on every trial.</br> Click start to begin.</p>","0","html-button-response","72","2629929","0.0-12.0","female","20","China","96991","26494","neither","neither","imgNWTK/KeepItSecret.jpg","imgNWTK/FindOutNow.jpg","info","eq","2.91","","","","","","","","","","","","","",""
"10762.40000000596","","","survey-number","73","2640697","0.0-13.0-0.0","female","20","China","96991","26494","neither","neither","imgNWTK/KeepItSecret.jpg","imgNWTK/FindOutNow.jpg","info","eq","2.91","{""undefined"":""109""}","","","","","","","","","","","","imgNWTK/KeepItSecret.jpg",""
"6545.5","","","survey-number","74","2647247","0.0-13.0-0.1","female","20","China","96991","26494","neither","neither","imgNWTK/KeepItSecret.jpg","imgNWTK/FindOutNow.jpg","info","eq","2.91","{""undefined"":""201""}","","","","","","","","","","","","imgNWTK/KeepItSecret.jpg",""
"7111.0999999940395","","","survey-number","75","2654362","0.0-13.0-0.2","female","20","China","96991","26494","neither","neither","imgNWTK/KeepItSecret.jpg","imgNWTK/FindOutNow.jpg","info","eq","2.91","{""undefined"":""20""}","","","","","","","","","","","","imgNWTK/KeepItSecret.jpg",""
"3662.7000000178814","","","survey-number","76","2658030","0.0-13.0-0.3","female","20","China","96991","26494","neither","neither","imgNWTK/KeepItSecret.jpg","imgNWTK/FindOutNow.jpg","info","eq","2.91","{""undefined"":""78""}","","","","","","","","","","","","imgNWTK/KeepItSecret.jpg",""
"2995","","","survey-number","77","2661029","0.0-13.0-0.4","female","20","China","96991","26494","neither","neither","imgNWTK/KeepItSecret.jpg","imgNWTK/FindOutNow.jpg","info","eq","2.91","{""undefined"":""56""}","","","","","","","","","","","","imgNWTK/KeepItSecret.jpg",""
"3712.699999988079","","","survey-number","78","2664746","0.0-13.0-0.5","female","20","China","96991","26494","neither","neither","imgNWTK/KeepItSecret.jpg","imgNWTK/FindOutNow.jpg","info","eq","2.91","{""undefined"":""199""}","","","","","","","","","","","","imgNWTK/KeepItSecret.jpg",""
"4995.899999976158","","","survey-number","79","2669746","0.0-13.0-0.6","female","20","China","96991","26494","neither","neither","imgNWTK/KeepItSecret.jpg","imgNWTK/FindOutNow.jpg","info","eq","2.91","{""undefined"":""102""}","","","","","","","","","","","","imgNWTK/KeepItSecret.jpg",""
"2745.199999988079","","","survey-number","80","2672496","0.0-13.0-0.7","female","20","China","96991","26494","neither","neither","imgNWTK/KeepItSecret.jpg","imgNWTK/FindOutNow.jpg","info","eq","2.91","{""undefined"":""106""}","","","","","","","","","","","","imgNWTK/KeepItSecret.jpg",""
"3929.0999999940395","","","survey-number","81","2676429","0.0-13.0-0.8","female","20","China","96991","26494","neither","neither","imgNWTK/KeepItSecret.jpg","imgNWTK/FindOutNow.jpg","info","eq","2.91","{""undefined"":""78""}","","","","","","","","","","","","imgNWTK/KeepItSecret.jpg",""
"3261.4000000059605","","","survey-number","82","2679696","0.0-13.0-0.9","female","20","China","96991","26494","neither","neither","imgNWTK/KeepItSecret.jpg","imgNWTK/FindOutNow.jpg","info","eq","2.91","{""undefined"":""48""}","","","","","","","","","","","","imgNWTK/KeepItSecret.jpg",""
"2630","<p><b>Imagine that you clicked on the below button for another 10 trials (this includes <i> both WIN and NO-WIN trials</i>).</p> <img src= 'imgNWTK/FindOutNow.jpg'></img></br></br> <p><b>Please type the reward (number of points) you would expect to receive on every trial.</br> Click start to begin.</p>","0","html-button-response","83","2682328","0.0-14.0","female","20","China","96991","26494","neither","neither","imgNWTK/KeepItSecret.jpg","imgNWTK/FindOutNow.jpg","info","eq","2.91","","","","","","","","","","","","","",""
"3579","","","survey-number","84","2685912","0.0-15.0-0.0","female","20","China","96991","26494","neither","neither","imgNWTK/KeepItSecret.jpg","imgNWTK/FindOutNow.jpg","info","eq","2.91","{""undefined"":""89""}","","","","","","","","","","","","imgNWTK/FindOutNow.jpg",""
"2845.5999999940395","","","survey-number","85","2688762","0.0-15.0-0.1","female","20","China","96991","26494","neither","neither","imgNWTK/KeepItSecret.jpg","imgNWTK/FindOutNow.jpg","info","eq","2.91","{""undefined"":""109""}","","","","","","","","","","","","imgNWTK/FindOutNow.jpg",""
"2329.2000000178814","","","survey-number","86","2691095","0.0-15.0-0.2","female","20","China","96991","26494","neither","neither","imgNWTK/KeepItSecret.jpg","imgNWTK/FindOutNow.jpg","info","eq","2.91","{""undefined"":""109""}","","","","","","","","","","","","imgNWTK/FindOutNow.jpg",""
"2179.7000000178814","","","survey-number","87","2693279","0.0-15.0-0.3","female","20","China","96991","26494","neither","neither","imgNWTK/KeepItSecret.jpg","imgNWTK/FindOutNow.jpg","info","eq","2.91","{""undefined"":""109""}","","","","","","","","","","","","imgNWTK/FindOutNow.jpg",""
"2579.5999999940395","","","survey-number","88","2695862","0.0-15.0-0.4","female","20","China","96991","26494","neither","neither","imgNWTK/KeepItSecret.jpg","imgNWTK/FindOutNow.jpg","info","eq","2.91","{""undefined"":""109""}","","","","","","","","","","","","imgNWTK/FindOutNow.jpg",""
"2445.2999999821186","","","survey-number","89","2698312","0.0-15.0-0.5","female","20","China","96991","26494","neither","neither","imgNWTK/KeepItSecret.jpg","imgNWTK/FindOutNow.jpg","info","eq","2.91","{""undefined"":""109""}","","","","","","","","","","","","imgNWTK/FindOutNow.jpg",""
"2046.4000000059605","","","survey-number","90","2700362","0.0-15.0-0.6","female","20","China","96991","26494","neither","neither","imgNWTK/KeepItSecret.jpg","imgNWTK/FindOutNow.jpg","info","eq","2.91","{""undefined"":""109""}","","","","","","","","","","","","imgNWTK/FindOutNow.jpg",""
"3112.600000023842","","","survey-number","91","2703479","0.0-15.0-0.7","female","20","China","96991","26494","neither","neither","imgNWTK/KeepItSecret.jpg","imgNWTK/FindOutNow.jpg","info","eq","2.91","{""undefined"":""109""}","","","","","","","","","","","","imgNWTK/FindOutNow.jpg",""
"1911.4000000059605","","","survey-number","92","2705395","0.0-15.0-0.8","female","20","China","96991","26494","neither","neither","imgNWTK/KeepItSecret.jpg","imgNWTK/FindOutNow.jpg","info","eq","2.91","{""undefined"":""109""}","","","","","","","","","","","","imgNWTK/FindOutNow.jpg",""
"1863.2999999821186","","","survey-number","93","2707262","0.0-15.0-0.9","female","20","China","96991","26494","neither","neither","imgNWTK/KeepItSecret.jpg","imgNWTK/FindOutNow.jpg","info","eq","2.91","{""undefined"":""109""}","","","","","","","","","","","","imgNWTK/FindOutNow.jpg",""
"13640.59999999404","","","survey-number","94","2720912","0.0-16.0","female","20","China","96991","26494","neither","neither","imgNWTK/KeepItSecret.jpg","imgNWTK/FindOutNow.jpg","info","eq","2.91","{""undefined"":""50""}","","","","","","","","","","","","","imgNWTK/FindOutNow.jpg"
"3161.199999988079","","","survey-number","95","2724079","0.0-17.0","female","20","China","96991","26494","neither","neither","imgNWTK/KeepItSecret.jpg","imgNWTK/FindOutNow.jpg","info","eq","2.91","{""undefined"":""90""}","","","","","","","","","","","","","imgNWTK/KeepItSecret.jpg"
"2796","<p style=""text-align:left;"">Great! We are almost at the end of the study... (Please do not close the browser window yet.)</p><p> Your final points balance is 2907, which equals to a bonus payment of $2.91. Please collect your payment from Mathews Building Room 721 (Mon-Fri 9am-5pm); please email amy.x.li@unsw.edu.au at least 24 hours prior to collection so that this is ready for you.</p><p style=""text-align:left;"">To view the debriefing form, please click <a href=""./imgNWTK/debrief_3205.pdf"" target=""_blank"">here</a> to download a copy.</p><p style=""text-align:left;"">Then, <b>please click the below button</b> to confirm that you have received your debrief and to complete the study. Upon clicking ""Finish!"", your SONA credit will be automatically assigned.</p>","0","html-button-response","96","2726878","0.0-18.0","female","20","China","96991","26494","neither","neither","imgNWTK/KeepItSecret.jpg","imgNWTK/FindOutNow.jpg","info","eq","2.91","","","","","","","","","","","","","",""
