"rt","stimulus","button_pressed","trial_type","trial_index","time_elapsed","internal_node_id","gender","age","language","PID","sona_id","subStim","optStim","stim1","stim2","infoCond","optimCond","bonus","responses","banditTrial","choice","cue","feedback","estimateData","leftOption","rightOption","choiceName","leftInput","rightInput","key_press","postQ","singleEst"
"1397","<p>Thank you for signing up to participate in SONA Study 465! <br> During this study, please focus on the experiment and refrain from activities such as:</p>- <b>Switching to other tabs on your browser (this will be monitored via the experiment)</br> - Using your mobile phone/cell phone</br> - Communicating with others</br></br></b><p>This way, you are helping to provide data that is useful for psychological research. We thank you for your cooperation!</p>","0","html-button-response","0","1398","0.0-0.0","female","19","Australia","20090","26101","imgNWTK/square.png","imgNWTK/triangle.png","imgNWTK/square.png","imgNWTK/triangle.png","noninfo","sub","3.31","","","","","","","","","","","","","",""
"1539","<p>Welcome to the experiment!</p><p>You will now read some instructions about the task. Press the 'Next' button to continue. </p>","0","html-button-response","1","2939","0.0-1.0","female","19","Australia","20090","26101","imgNWTK/square.png","imgNWTK/triangle.png","imgNWTK/square.png","imgNWTK/triangle.png","noninfo","sub","3.31","","","","","","","","","","","","","",""
"9381","<p> On each trial throughout the experiment you will choose between two options, </br>a <b>Black Square </b> and <b> Black Triangle </b>, as seen below.</p><div><div style= 'float: left; width: 300px; margin: 10px 10px;'><img src= 'imgNWTK/square.png'></img></div><div style= 'float: right; width: 300px; margin: 10px 10px;'><img src= 'imgNWTK/triangle.png'></img></div></div><br/><br/><br/><br/><br/><br/><br/><br/><br/><br/><br/><p>Each option results in winning points or receiving 0 points.</br>There is a 50% chance of either winning or receiving 0 points.</p><p>You won't receive the outcome until after a <b> 20 second delay</b>.</p>","0","html-button-response","2","12321","0.0-2.0-0.0","female","19","Australia","20090","26101","imgNWTK/square.png","imgNWTK/triangle.png","imgNWTK/square.png","imgNWTK/triangle.png","noninfo","sub","3.31","","","","","","","","","","","","","",""
"24848","<img src= 'imgNWTK/NonInfoDiagram.png'></img><p>As seen above, whether you choose the square or triangle, you will receive a coloured circle after the choice. </p> <p>This circle will be on screen for 20 seconds until you win points or receive 0 points.</p><p>The coloured circle depends on which option you chose. </br> In the above example, choosing a triangle leads to a green circle and choosing the square leads to a red circle.</p>Please note: the circles in your task will be different to the above colours.</br></br>","0","html-button-response","3","37170","0.0-2.0-1.0","female","19","Australia","20090","26101","imgNWTK/square.png","imgNWTK/triangle.png","imgNWTK/square.png","imgNWTK/triangle.png","noninfo","sub","3.31","","","","","","","","","","","","","",""
"9273","<img src= 'cues/winTrials_noInfo.png' width = '1200'></img><p>To reiterate, 50% of the outcomes of each option will be WIN TRIALS, and the other 50% will be NO-WIN TRIALS.","0","html-button-response","4","46444","0.0-2.0-2.0","female","19","Australia","20090","26101","imgNWTK/square.png","imgNWTK/triangle.png","imgNWTK/square.png","imgNWTK/triangle.png","noninfo","sub","3.31","","","","","","","","","","","","","",""
"19130","<p> There will be <b>four blocks</b> in the experiment.</br>You will be given a short 15 second break between each block.</p><p><b>The points and the options will remain the same between the blocks.</b></p>The blocks are there just to give you a small break.</br></br></br></br><p>The points you earn in the task are also equal to <b> actual money</b>.</br> <b>1000 points is equal to $1 AUD</b></p><p>This is the rate you will be paid at the experiment's end.","0","html-button-response","5","65575","0.0-2.0-3.0","female","19","Australia","20090","26101","imgNWTK/square.png","imgNWTK/triangle.png","imgNWTK/square.png","imgNWTK/triangle.png","noninfo","sub","3.31","","","","","","","","","","","","","",""
"16294","","","survey-multi-choice","6","81872","0.0-2.0-4.0","female","19","Australia","20090","26101","imgNWTK/square.png","imgNWTK/triangle.png","imgNWTK/square.png","imgNWTK/triangle.png","noninfo","sub","3.31","{""Q0"":""20 Seconds"",""Q1"":""True"",""Q2"":""Equally""}","","","","","","","","","","","","",""
"1484","<p> Well done, all your answers were correct! <br> The experiment is about to start now. <br/> Click start to continue, or email your researcher <b>(amy.x.li@unsw.edu.au)</b> if you have any questions before starting.","0","html-button-response","7","83357","0.0-3.0","female","19","Australia","20090","26101","imgNWTK/square.png","imgNWTK/triangle.png","imgNWTK/square.png","imgNWTK/triangle.png","noninfo","sub","3.31","","","","","","","","","","","","","",""
"2362","","","bandit-task-exp6","8","108224","0.0-4.0-0.0","female","19","Australia","20090","26101","imgNWTK/square.png","imgNWTK/triangle.png","imgNWTK/square.png","imgNWTK/triangle.png","noninfo","sub","3.31","","1","1","2","0","null","imgNWTK/triangle.png","imgNWTK/square.png","imgNWTK/square.png","NaN","NaN","","",""
"1320","","","bandit-task-exp6","9","132004","0.0-4.0-0.1","female","19","Australia","20090","26101","imgNWTK/square.png","imgNWTK/triangle.png","imgNWTK/square.png","imgNWTK/triangle.png","noninfo","sub","3.31","","2","2","2","74","null","imgNWTK/triangle.png","imgNWTK/square.png","imgNWTK/triangle.png","NaN","NaN","","",""
"1432","","","bandit-task-exp6","10","157446","0.0-4.0-0.2","female","19","Australia","20090","26101","imgNWTK/square.png","imgNWTK/triangle.png","imgNWTK/square.png","imgNWTK/triangle.png","noninfo","sub","3.31","","3","1","1","127","null","imgNWTK/triangle.png","imgNWTK/square.png","imgNWTK/square.png","NaN","NaN","","",""
"3224","","","bandit-task-exp6","11","183661","0.0-4.0-0.3","female","19","Australia","20090","26101","imgNWTK/square.png","imgNWTK/triangle.png","imgNWTK/square.png","imgNWTK/triangle.png","noninfo","sub","3.31","","4","1","2","0","null","imgNWTK/square.png","imgNWTK/triangle.png","imgNWTK/square.png","NaN","NaN","","",""
"1532","","","bandit-task-exp6","12","207988","0.0-4.0-0.4","female","19","Australia","20090","26101","imgNWTK/square.png","imgNWTK/triangle.png","imgNWTK/square.png","imgNWTK/triangle.png","noninfo","sub","3.31","","5","2","2","88","null","imgNWTK/triangle.png","imgNWTK/square.png","imgNWTK/triangle.png","NaN","NaN","","",""
"1460","","","bandit-task-exp6","13","234060","0.0-4.0-0.5","female","19","Australia","20090","26101","imgNWTK/square.png","imgNWTK/triangle.png","imgNWTK/square.png","imgNWTK/triangle.png","noninfo","sub","3.31","","6","2","2","79","null","imgNWTK/square.png","imgNWTK/triangle.png","imgNWTK/triangle.png","NaN","NaN","","",""
"3654","","","bandit-task-exp6","14","337995","0.0-4.0-0.6","female","19","Australia","20090","26101","imgNWTK/square.png","imgNWTK/triangle.png","imgNWTK/square.png","imgNWTK/triangle.png","noninfo","sub","3.31","","7","1","2","0","null","imgNWTK/triangle.png","imgNWTK/square.png","imgNWTK/square.png","NaN","NaN","","",""
"1972","","","bandit-task-exp6","15","366362","0.0-4.0-0.7","female","19","Australia","20090","26101","imgNWTK/square.png","imgNWTK/triangle.png","imgNWTK/square.png","imgNWTK/triangle.png","noninfo","sub","3.31","","8","2","1","0","null","imgNWTK/triangle.png","imgNWTK/square.png","imgNWTK/triangle.png","NaN","NaN","","",""
"1018","","","bandit-task-exp6","16","389407","0.0-4.0-0.8","female","19","Australia","20090","26101","imgNWTK/square.png","imgNWTK/triangle.png","imgNWTK/square.png","imgNWTK/triangle.png","noninfo","sub","3.31","","9","2","1","0","null","imgNWTK/square.png","imgNWTK/triangle.png","imgNWTK/triangle.png","NaN","NaN","","",""
"745","","","bandit-task-exp6","17","424191","0.0-4.0-0.9","female","19","Australia","20090","26101","imgNWTK/square.png","imgNWTK/triangle.png","imgNWTK/square.png","imgNWTK/triangle.png","noninfo","sub","3.31","","10","1","1","126","null","imgNWTK/square.png","imgNWTK/triangle.png","imgNWTK/square.png","NaN","NaN","","",""
"11927","","","bandit-task-exp6","18","463400","0.0-4.0-0.10","female","19","Australia","20090","26101","imgNWTK/square.png","imgNWTK/triangle.png","imgNWTK/square.png","imgNWTK/triangle.png","noninfo","sub","3.31","","11","1","1","128","null","imgNWTK/square.png","imgNWTK/triangle.png","imgNWTK/square.png","NaN","NaN","","",""
"924","","","bandit-task-exp6","19","486375","0.0-4.0-0.11","female","19","Australia","20090","26101","imgNWTK/square.png","imgNWTK/triangle.png","imgNWTK/square.png","imgNWTK/triangle.png","noninfo","sub","3.31","","12","2","2","75","null","imgNWTK/square.png","imgNWTK/triangle.png","imgNWTK/triangle.png","NaN","NaN","","",""
"1648","","","bandit-task-exp6","20","510145","0.0-4.0-0.12","female","19","Australia","20090","26101","imgNWTK/square.png","imgNWTK/triangle.png","imgNWTK/square.png","imgNWTK/triangle.png","noninfo","sub","3.31","","13","1","1","111","null","imgNWTK/square.png","imgNWTK/triangle.png","imgNWTK/square.png","NaN","NaN","","",""
"893","","","bandit-task-exp6","21","533056","0.0-4.0-0.13","female","19","Australia","20090","26101","imgNWTK/square.png","imgNWTK/triangle.png","imgNWTK/square.png","imgNWTK/triangle.png","noninfo","sub","3.31","","14","2","1","0","null","imgNWTK/square.png","imgNWTK/triangle.png","imgNWTK/triangle.png","NaN","NaN","","",""
"846","","","bandit-task-exp6","22","555561","0.0-4.0-0.14","female","19","Australia","20090","26101","imgNWTK/square.png","imgNWTK/triangle.png","imgNWTK/square.png","imgNWTK/triangle.png","noninfo","sub","3.31","","15","1","2","0","null","imgNWTK/square.png","imgNWTK/triangle.png","imgNWTK/square.png","NaN","NaN","","",""
"null","<p><b> Congratulations, you have finished this block. </b> </p><p>Please take a short break before moving onto the next block.</p><p>The next block will start after a 15 second break.</p><b>Remember, the point rewards are the same between blocks","","html-keyboard-response","23","570577","0.0-5.0","female","19","Australia","20090","26101","imgNWTK/square.png","imgNWTK/triangle.png","imgNWTK/square.png","imgNWTK/triangle.png","noninfo","sub","3.31","","","","","","","","","","","","null","",""
"1574","","","bandit-task-exp6","24","595265","0.0-6.0-0.0","female","19","Australia","20090","26101","imgNWTK/square.png","imgNWTK/triangle.png","imgNWTK/square.png","imgNWTK/triangle.png","noninfo","sub","3.31","","16","1","2","0","null","imgNWTK/square.png","imgNWTK/triangle.png","imgNWTK/square.png","NaN","NaN","","",""
"948","","","bandit-task-exp6","25","618123","0.0-6.0-0.1","female","19","Australia","20090","26101","imgNWTK/square.png","imgNWTK/triangle.png","imgNWTK/square.png","imgNWTK/triangle.png","noninfo","sub","3.31","","17","1","2","0","null","imgNWTK/triangle.png","imgNWTK/square.png","imgNWTK/square.png","NaN","NaN","","",""
"775","","","bandit-task-exp6","26","641317","0.0-6.0-0.2","female","19","Australia","20090","26101","imgNWTK/square.png","imgNWTK/triangle.png","imgNWTK/square.png","imgNWTK/triangle.png","noninfo","sub","3.31","","18","1","1","115","null","imgNWTK/square.png","imgNWTK/triangle.png","imgNWTK/square.png","NaN","NaN","","",""
"1787","","","bandit-task-exp6","27","665542","0.0-6.0-0.3","female","19","Australia","20090","26101","imgNWTK/square.png","imgNWTK/triangle.png","imgNWTK/square.png","imgNWTK/triangle.png","noninfo","sub","3.31","","19","2","1","0","null","imgNWTK/triangle.png","imgNWTK/square.png","imgNWTK/triangle.png","NaN","NaN","","",""
"802","","","bandit-task-exp6","28","688893","0.0-6.0-0.4","female","19","Australia","20090","26101","imgNWTK/square.png","imgNWTK/triangle.png","imgNWTK/square.png","imgNWTK/triangle.png","noninfo","sub","3.31","","20","1","1","118","null","imgNWTK/square.png","imgNWTK/triangle.png","imgNWTK/square.png","NaN","NaN","","",""
"1493","","","bandit-task-exp6","29","712409","0.0-6.0-0.5","female","19","Australia","20090","26101","imgNWTK/square.png","imgNWTK/triangle.png","imgNWTK/square.png","imgNWTK/triangle.png","noninfo","sub","3.31","","21","1","2","0","null","imgNWTK/square.png","imgNWTK/triangle.png","imgNWTK/square.png","NaN","NaN","","",""
"856","","","bandit-task-exp6","30","741761","0.0-6.0-0.6","female","19","Australia","20090","26101","imgNWTK/square.png","imgNWTK/triangle.png","imgNWTK/square.png","imgNWTK/triangle.png","noninfo","sub","3.31","","22","1","1","117","null","imgNWTK/square.png","imgNWTK/triangle.png","imgNWTK/square.png","NaN","NaN","","",""
"1096","","","bandit-task-exp6","31","765483","0.0-6.0-0.7","female","19","Australia","20090","26101","imgNWTK/square.png","imgNWTK/triangle.png","imgNWTK/square.png","imgNWTK/triangle.png","noninfo","sub","3.31","","23","1","2","0","null","imgNWTK/triangle.png","imgNWTK/square.png","imgNWTK/square.png","NaN","NaN","","",""
"621","","","bandit-task-exp6","32","788753","0.0-6.0-0.8","female","19","Australia","20090","26101","imgNWTK/square.png","imgNWTK/triangle.png","imgNWTK/square.png","imgNWTK/triangle.png","noninfo","sub","3.31","","24","1","1","123","null","imgNWTK/square.png","imgNWTK/triangle.png","imgNWTK/square.png","NaN","NaN","","",""
"2055","","","bandit-task-exp6","33","815246","0.0-6.0-0.9","female","19","Australia","20090","26101","imgNWTK/square.png","imgNWTK/triangle.png","imgNWTK/square.png","imgNWTK/triangle.png","noninfo","sub","3.31","","25","1","1","125","null","imgNWTK/triangle.png","imgNWTK/square.png","imgNWTK/square.png","NaN","NaN","","",""
"1037","","","bandit-task-exp6","34","839267","0.0-6.0-0.10","female","19","Australia","20090","26101","imgNWTK/square.png","imgNWTK/triangle.png","imgNWTK/square.png","imgNWTK/triangle.png","noninfo","sub","3.31","","26","1","1","130","null","imgNWTK/triangle.png","imgNWTK/square.png","imgNWTK/square.png","NaN","NaN","","",""
"919","","","bandit-task-exp6","35","870787","0.0-6.0-0.11","female","19","Australia","20090","26101","imgNWTK/square.png","imgNWTK/triangle.png","imgNWTK/square.png","imgNWTK/triangle.png","noninfo","sub","3.31","","27","1","1","111","null","imgNWTK/triangle.png","imgNWTK/square.png","imgNWTK/square.png","NaN","NaN","","",""
"2031","","","bandit-task-exp6","36","902166","0.0-6.0-0.12","female","19","Australia","20090","26101","imgNWTK/square.png","imgNWTK/triangle.png","imgNWTK/square.png","imgNWTK/triangle.png","noninfo","sub","3.31","","28","1","2","0","null","imgNWTK/triangle.png","imgNWTK/square.png","imgNWTK/square.png","NaN","NaN","","",""
"1538","","","bandit-task-exp6","37","925442","0.0-6.0-0.13","female","19","Australia","20090","26101","imgNWTK/square.png","imgNWTK/triangle.png","imgNWTK/square.png","imgNWTK/triangle.png","noninfo","sub","3.31","","29","1","2","0","null","imgNWTK/square.png","imgNWTK/triangle.png","imgNWTK/square.png","NaN","NaN","","",""
"879","","","bandit-task-exp6","38","950718","0.0-6.0-0.14","female","19","Australia","20090","26101","imgNWTK/square.png","imgNWTK/triangle.png","imgNWTK/square.png","imgNWTK/triangle.png","noninfo","sub","3.31","","30","1","2","0","null","imgNWTK/triangle.png","imgNWTK/square.png","imgNWTK/square.png","NaN","NaN","","",""
"null","<p><b> Congratulations, you have finished this block. </b> </p><p>Please take a short break before moving onto the next block.</p><p>The next block will start after a 15 second break.</p><b>Remember, the point rewards are the same between blocks","","html-keyboard-response","39","965719","0.0-7.0","female","19","Australia","20090","26101","imgNWTK/square.png","imgNWTK/triangle.png","imgNWTK/square.png","imgNWTK/triangle.png","noninfo","sub","3.31","","","","","","","","","","","","null","",""
"1701","","","bandit-task-exp6","40","989683","0.0-8.0-0.0","female","19","Australia","20090","26101","imgNWTK/square.png","imgNWTK/triangle.png","imgNWTK/square.png","imgNWTK/triangle.png","noninfo","sub","3.31","","31","1","2","0","null","imgNWTK/square.png","imgNWTK/triangle.png","imgNWTK/square.png","NaN","NaN","","",""
"1140","","","bandit-task-exp6","41","1013536","0.0-8.0-0.1","female","19","Australia","20090","26101","imgNWTK/square.png","imgNWTK/triangle.png","imgNWTK/square.png","imgNWTK/triangle.png","noninfo","sub","3.31","","32","2","2","87","null","imgNWTK/triangle.png","imgNWTK/square.png","imgNWTK/triangle.png","NaN","NaN","","",""
"942","","","bandit-task-exp6","42","1037652","0.0-8.0-0.2","female","19","Australia","20090","26101","imgNWTK/square.png","imgNWTK/triangle.png","imgNWTK/square.png","imgNWTK/triangle.png","noninfo","sub","3.31","","33","2","2","87","null","imgNWTK/triangle.png","imgNWTK/square.png","imgNWTK/triangle.png","NaN","NaN","","",""
"1188","","","bandit-task-exp6","43","1060581","0.0-8.0-0.3","female","19","Australia","20090","26101","imgNWTK/square.png","imgNWTK/triangle.png","imgNWTK/square.png","imgNWTK/triangle.png","noninfo","sub","3.31","","34","2","2","75","null","imgNWTK/square.png","imgNWTK/triangle.png","imgNWTK/triangle.png","NaN","NaN","","",""
"1180","","","bandit-task-exp6","44","1083448","0.0-8.0-0.4","female","19","Australia","20090","26101","imgNWTK/square.png","imgNWTK/triangle.png","imgNWTK/square.png","imgNWTK/triangle.png","noninfo","sub","3.31","","35","2","2","81","null","imgNWTK/square.png","imgNWTK/triangle.png","imgNWTK/triangle.png","NaN","NaN","","",""
"1265","","","bandit-task-exp6","45","1107088","0.0-8.0-0.5","female","19","Australia","20090","26101","imgNWTK/square.png","imgNWTK/triangle.png","imgNWTK/square.png","imgNWTK/triangle.png","noninfo","sub","3.31","","36","1","2","0","null","imgNWTK/triangle.png","imgNWTK/square.png","imgNWTK/square.png","NaN","NaN","","",""
"870","","","bandit-task-exp6","46","1130019","0.0-8.0-0.6","female","19","Australia","20090","26101","imgNWTK/square.png","imgNWTK/triangle.png","imgNWTK/square.png","imgNWTK/triangle.png","noninfo","sub","3.31","","37","1","2","0","null","imgNWTK/square.png","imgNWTK/triangle.png","imgNWTK/square.png","NaN","NaN","","",""
"908","","","bandit-task-exp6","47","1153499","0.0-8.0-0.7","female","19","Australia","20090","26101","imgNWTK/square.png","imgNWTK/triangle.png","imgNWTK/square.png","imgNWTK/triangle.png","noninfo","sub","3.31","","38","1","1","129","null","imgNWTK/triangle.png","imgNWTK/square.png","imgNWTK/square.png","NaN","NaN","","",""
"1048","","","bandit-task-exp6","48","1179924","0.0-8.0-0.8","female","19","Australia","20090","26101","imgNWTK/square.png","imgNWTK/triangle.png","imgNWTK/square.png","imgNWTK/triangle.png","noninfo","sub","3.31","","39","1","1","130","null","imgNWTK/square.png","imgNWTK/triangle.png","imgNWTK/square.png","NaN","NaN","","",""
"838","","","bandit-task-exp6","49","1202552","0.0-8.0-0.9","female","19","Australia","20090","26101","imgNWTK/square.png","imgNWTK/triangle.png","imgNWTK/square.png","imgNWTK/triangle.png","noninfo","sub","3.31","","40","1","2","0","null","imgNWTK/square.png","imgNWTK/triangle.png","imgNWTK/square.png","NaN","NaN","","",""
"1073","","","bandit-task-exp6","50","1225843","0.0-8.0-0.10","female","19","Australia","20090","26101","imgNWTK/square.png","imgNWTK/triangle.png","imgNWTK/square.png","imgNWTK/triangle.png","noninfo","sub","3.31","","41","1","1","127","null","imgNWTK/triangle.png","imgNWTK/square.png","imgNWTK/square.png","NaN","NaN","","",""
"1181","","","bandit-task-exp6","51","1250455","0.0-8.0-0.11","female","19","Australia","20090","26101","imgNWTK/square.png","imgNWTK/triangle.png","imgNWTK/square.png","imgNWTK/triangle.png","noninfo","sub","3.31","","42","1","2","0","null","imgNWTK/square.png","imgNWTK/triangle.png","imgNWTK/square.png","NaN","NaN","","",""
"724","","","bandit-task-exp6","52","1293865","0.0-8.0-0.12","female","19","Australia","20090","26101","imgNWTK/square.png","imgNWTK/triangle.png","imgNWTK/square.png","imgNWTK/triangle.png","noninfo","sub","3.31","","43","1","1","126","null","imgNWTK/triangle.png","imgNWTK/square.png","imgNWTK/square.png","NaN","NaN","","",""
"1440","","","bandit-task-exp6","53","1352773","0.0-8.0-0.13","female","19","Australia","20090","26101","imgNWTK/square.png","imgNWTK/triangle.png","imgNWTK/square.png","imgNWTK/triangle.png","noninfo","sub","3.31","","44","1","2","0","null","imgNWTK/triangle.png","imgNWTK/square.png","imgNWTK/square.png","NaN","NaN","","",""
"805","","","bandit-task-exp6","54","1375229","0.0-8.0-0.14","female","19","Australia","20090","26101","imgNWTK/square.png","imgNWTK/triangle.png","imgNWTK/square.png","imgNWTK/triangle.png","noninfo","sub","3.31","","45","1","2","0","null","imgNWTK/square.png","imgNWTK/triangle.png","imgNWTK/square.png","NaN","NaN","","",""
"null","<p><b> Congratulations, you have finished this block. </b> </p><p>Please take a short break before moving onto the next block.</p><p>The next block will start after a 15 second break.</p><b>Remember, the point rewards are the same between blocks","","html-keyboard-response","55","1390243","0.0-9.0","female","19","Australia","20090","26101","imgNWTK/square.png","imgNWTK/triangle.png","imgNWTK/square.png","imgNWTK/triangle.png","noninfo","sub","3.31","","","","","","","","","","","","null","",""
"29293","","","bandit-task-exp6","56","1441560","0.0-10.0-0.0","female","19","Australia","20090","26101","imgNWTK/square.png","imgNWTK/triangle.png","imgNWTK/square.png","imgNWTK/triangle.png","noninfo","sub","3.31","","46","1","1","114","null","imgNWTK/triangle.png","imgNWTK/square.png","imgNWTK/square.png","75","120","","",""
"12845","","","bandit-task-exp6","57","1476432","0.0-10.0-0.1","female","19","Australia","20090","26101","imgNWTK/square.png","imgNWTK/triangle.png","imgNWTK/square.png","imgNWTK/triangle.png","noninfo","sub","3.31","","47","1","2","0","null","imgNWTK/square.png","imgNWTK/triangle.png","imgNWTK/square.png","120","75","","",""
"10116","","","bandit-task-exp6","58","1508747","0.0-10.0-0.2","female","19","Australia","20090","26101","imgNWTK/square.png","imgNWTK/triangle.png","imgNWTK/square.png","imgNWTK/triangle.png","noninfo","sub","3.31","","48","1","2","0","null","imgNWTK/square.png","imgNWTK/triangle.png","imgNWTK/square.png","120","75","","",""
"14480","","","bandit-task-exp6","59","1547129","0.0-10.0-0.3","female","19","Australia","20090","26101","imgNWTK/square.png","imgNWTK/triangle.png","imgNWTK/square.png","imgNWTK/triangle.png","noninfo","sub","3.31","","49","1","1","121","null","imgNWTK/triangle.png","imgNWTK/square.png","imgNWTK/square.png","75","120","","",""
"7616","","","bandit-task-exp6","60","1580600","0.0-10.0-0.4","female","19","Australia","20090","26101","imgNWTK/square.png","imgNWTK/triangle.png","imgNWTK/square.png","imgNWTK/triangle.png","noninfo","sub","3.31","","50","1","1","129","null","imgNWTK/triangle.png","imgNWTK/square.png","imgNWTK/square.png","75","120","","",""
"8232","","","bandit-task-exp6","61","1611838","0.0-10.0-0.5","female","19","Australia","20090","26101","imgNWTK/square.png","imgNWTK/triangle.png","imgNWTK/square.png","imgNWTK/triangle.png","noninfo","sub","3.31","","51","1","2","0","null","imgNWTK/square.png","imgNWTK/triangle.png","imgNWTK/square.png","120","75","","",""
"6118","","","bandit-task-exp6","62","1647108","0.0-10.0-0.6","female","19","Australia","20090","26101","imgNWTK/square.png","imgNWTK/triangle.png","imgNWTK/square.png","imgNWTK/triangle.png","noninfo","sub","3.31","","52","1","1","111","null","imgNWTK/triangle.png","imgNWTK/square.png","imgNWTK/square.png","75","120","","",""
"7896","","","bandit-task-exp6","63","1677201","0.0-10.0-0.7","female","19","Australia","20090","26101","imgNWTK/square.png","imgNWTK/triangle.png","imgNWTK/square.png","imgNWTK/triangle.png","noninfo","sub","3.31","","53","1","2","0","null","imgNWTK/triangle.png","imgNWTK/square.png","imgNWTK/square.png","75","120","","",""
"7052","","","bandit-task-exp6","64","1705978","0.0-10.0-0.8","female","19","Australia","20090","26101","imgNWTK/square.png","imgNWTK/triangle.png","imgNWTK/square.png","imgNWTK/triangle.png","noninfo","sub","3.31","","54","1","2","0","null","imgNWTK/square.png","imgNWTK/triangle.png","imgNWTK/square.png","120","75","","",""
"8092","","","bandit-task-exp6","65","1737292","0.0-10.0-0.9","female","19","Australia","20090","26101","imgNWTK/square.png","imgNWTK/triangle.png","imgNWTK/square.png","imgNWTK/triangle.png","noninfo","sub","3.31","","55","1","1","115","null","imgNWTK/square.png","imgNWTK/triangle.png","imgNWTK/square.png","120","75","","",""
"6925","","","bandit-task-exp6","66","1767257","0.0-10.0-0.10","female","19","Australia","20090","26101","imgNWTK/square.png","imgNWTK/triangle.png","imgNWTK/square.png","imgNWTK/triangle.png","noninfo","sub","3.31","","56","1","1","112","null","imgNWTK/square.png","imgNWTK/triangle.png","imgNWTK/square.png","120","75","","",""
"7633","","","bandit-task-exp6","67","1797735","0.0-10.0-0.11","female","19","Australia","20090","26101","imgNWTK/square.png","imgNWTK/triangle.png","imgNWTK/square.png","imgNWTK/triangle.png","noninfo","sub","3.31","","57","1","2","0","null","imgNWTK/triangle.png","imgNWTK/square.png","imgNWTK/square.png","75","120","","",""
"7149","","","bandit-task-exp6","68","1826687","0.0-10.0-0.12","female","19","Australia","20090","26101","imgNWTK/square.png","imgNWTK/triangle.png","imgNWTK/square.png","imgNWTK/triangle.png","noninfo","sub","3.31","","58","1","2","0","null","imgNWTK/square.png","imgNWTK/triangle.png","imgNWTK/square.png","120","75","","",""
"6561","","","bandit-task-exp6","69","1857144","0.0-10.0-0.13","female","19","Australia","20090","26101","imgNWTK/square.png","imgNWTK/triangle.png","imgNWTK/square.png","imgNWTK/triangle.png","noninfo","sub","3.31","","59","1","2","0","null","imgNWTK/square.png","imgNWTK/triangle.png","imgNWTK/square.png","120","75","","",""
"6738","","","bandit-task-exp6","70","1885511","0.0-10.0-0.14","female","19","Australia","20090","26101","imgNWTK/square.png","imgNWTK/triangle.png","imgNWTK/square.png","imgNWTK/triangle.png","noninfo","sub","3.31","","60","1","1","124","null","imgNWTK/triangle.png","imgNWTK/square.png","imgNWTK/square.png","75","120","","",""
"2342","<p> Congratulations, you have finished the main part of the experiment. </p><p>Before you finish, we have a few short questions about the options and outcomes you saw in the task.</p>","0","html-button-response","71","1887854","0.0-11.0","female","19","Australia","20090","26101","imgNWTK/square.png","imgNWTK/triangle.png","imgNWTK/square.png","imgNWTK/triangle.png","noninfo","sub","3.31","","","","","","","","","","","","","",""
"10713","<p><b>Now, imagine that you clicked on the below button for another 10 trials (this includes <i> BOTH WIN and NO-WIN trials</i>).</p> <img src= 'imgNWTK/triangle.png'></img></br></br> <p><b>Please type the reward (number of points) you would expect to receive on every trial.</br> Click start to begin.</p>","0","html-button-response","72","1898568","0.0-12.0","female","19","Australia","20090","26101","imgNWTK/square.png","imgNWTK/triangle.png","imgNWTK/square.png","imgNWTK/triangle.png","noninfo","sub","3.31","","","","","","","","","","","","","",""
"16584.20000001788","","","survey-number","73","1915154","0.0-13.0-0.0","female","19","Australia","20090","26101","imgNWTK/square.png","imgNWTK/triangle.png","imgNWTK/square.png","imgNWTK/triangle.png","noninfo","sub","3.31","{""undefined"":""75""}","","","","","","","","","","","","imgNWTK/triangle.png",""
"4098.0999999940395","","","survey-number","74","1919247","0.0-13.0-0.1","female","19","Australia","20090","26101","imgNWTK/square.png","imgNWTK/triangle.png","imgNWTK/square.png","imgNWTK/triangle.png","noninfo","sub","3.31","{""undefined"":""65""}","","","","","","","","","","","","imgNWTK/triangle.png",""
"2966.5","","","survey-number","75","1922215","0.0-13.0-0.2","female","19","Australia","20090","26101","imgNWTK/square.png","imgNWTK/triangle.png","imgNWTK/square.png","imgNWTK/triangle.png","noninfo","sub","3.31","{""undefined"":""80""}","","","","","","","","","","","","imgNWTK/triangle.png",""
"4120.100000023842","","","survey-number","76","1926337","0.0-13.0-0.3","female","19","Australia","20090","26101","imgNWTK/square.png","imgNWTK/triangle.png","imgNWTK/square.png","imgNWTK/triangle.png","noninfo","sub","3.31","{""undefined"":""82""}","","","","","","","","","","","","imgNWTK/triangle.png",""
"1704.300000011921","","","survey-number","77","1928043","0.0-13.0-0.4","female","19","Australia","20090","26101","imgNWTK/square.png","imgNWTK/triangle.png","imgNWTK/square.png","imgNWTK/triangle.png","noninfo","sub","3.31","{""undefined"":""71""}","","","","","","","","","","","","imgNWTK/triangle.png",""
"1414.0999999940395","","","survey-number","78","1929459","0.0-13.0-0.5","female","19","Australia","20090","26101","imgNWTK/square.png","imgNWTK/triangle.png","imgNWTK/square.png","imgNWTK/triangle.png","noninfo","sub","3.31","{""undefined"":""73""}","","","","","","","","","","","","imgNWTK/triangle.png",""
"2900.199999988079","","","survey-number","79","1932361","0.0-13.0-0.6","female","19","Australia","20090","26101","imgNWTK/square.png","imgNWTK/triangle.png","imgNWTK/square.png","imgNWTK/triangle.png","noninfo","sub","3.31","{""undefined"":""69""}","","","","","","","","","","","","imgNWTK/triangle.png",""
"2429.199999988079","","","survey-number","80","1934792","0.0-13.0-0.7","female","19","Australia","20090","26101","imgNWTK/square.png","imgNWTK/triangle.png","imgNWTK/square.png","imgNWTK/triangle.png","noninfo","sub","3.31","{""undefined"":""84""}","","","","","","","","","","","","imgNWTK/triangle.png",""
"2548.699999988079","","","survey-number","81","1937343","0.0-13.0-0.8","female","19","Australia","20090","26101","imgNWTK/square.png","imgNWTK/triangle.png","imgNWTK/square.png","imgNWTK/triangle.png","noninfo","sub","3.31","{""undefined"":""89""}","","","","","","","","","","","","imgNWTK/triangle.png",""
"1961.5999999940395","","","survey-number","82","1939308","0.0-13.0-0.9","female","19","Australia","20090","26101","imgNWTK/square.png","imgNWTK/triangle.png","imgNWTK/square.png","imgNWTK/triangle.png","noninfo","sub","3.31","{""undefined"":""90""}","","","","","","","","","","","","imgNWTK/triangle.png",""
"1881","<p><b>Imagine that you clicked on the below button for another 10 trials (this includes <i> both WIN and NO-WIN trials</i>).</p> <img src= 'imgNWTK/square.png'></img></br></br> <p><b>Please type the reward (number of points) you would expect to receive on every trial.</br> Click start to begin.</p>","0","html-button-response","83","1941189","0.0-14.0","female","19","Australia","20090","26101","imgNWTK/square.png","imgNWTK/triangle.png","imgNWTK/square.png","imgNWTK/triangle.png","noninfo","sub","3.31","","","","","","","","","","","","","",""
"3027.699999988079","","","survey-number","84","1944218","0.0-15.0-0.0","female","19","Australia","20090","26101","imgNWTK/square.png","imgNWTK/triangle.png","imgNWTK/square.png","imgNWTK/triangle.png","noninfo","sub","3.31","{""undefined"":""114""}","","","","","","","","","","","","imgNWTK/square.png",""
"2990.9000000059605","","","survey-number","85","1947211","0.0-15.0-0.1","female","19","Australia","20090","26101","imgNWTK/square.png","imgNWTK/triangle.png","imgNWTK/square.png","imgNWTK/triangle.png","noninfo","sub","3.31","{""undefined"":""110""}","","","","","","","","","","","","imgNWTK/square.png",""
"1864.5","","","survey-number","86","1949077","0.0-15.0-0.2","female","19","Australia","20090","26101","imgNWTK/square.png","imgNWTK/triangle.png","imgNWTK/square.png","imgNWTK/triangle.png","noninfo","sub","3.31","{""undefined"":""120""}","","","","","","","","","","","","imgNWTK/square.png",""
"1887.5","","","survey-number","87","1950967","0.0-15.0-0.3","female","19","Australia","20090","26101","imgNWTK/square.png","imgNWTK/triangle.png","imgNWTK/square.png","imgNWTK/triangle.png","noninfo","sub","3.31","{""undefined"":""125""}","","","","","","","","","","","","imgNWTK/square.png",""
"2772.4000000059605","","","survey-number","88","1953741","0.0-15.0-0.4","female","19","Australia","20090","26101","imgNWTK/square.png","imgNWTK/triangle.png","imgNWTK/square.png","imgNWTK/triangle.png","noninfo","sub","3.31","{""undefined"":""117""}","","","","","","","","","","","","imgNWTK/square.png",""
"2747.2999999821186","","","survey-number","89","1956491","0.0-15.0-0.5","female","19","Australia","20090","26101","imgNWTK/square.png","imgNWTK/triangle.png","imgNWTK/square.png","imgNWTK/triangle.png","noninfo","sub","3.31","{""undefined"":""119""}","","","","","","","","","","","","imgNWTK/square.png",""
"2810","","","survey-number","90","1959304","0.0-15.0-0.6","female","19","Australia","20090","26101","imgNWTK/square.png","imgNWTK/triangle.png","imgNWTK/square.png","imgNWTK/triangle.png","noninfo","sub","3.31","{""undefined"":""102""}","","","","","","","","","","","","imgNWTK/square.png",""
"2999.199999988079","","","survey-number","91","1962305","0.0-15.0-0.7","female","19","Australia","20090","26101","imgNWTK/square.png","imgNWTK/triangle.png","imgNWTK/square.png","imgNWTK/triangle.png","noninfo","sub","3.31","{""undefined"":""107""}","","","","","","","","","","","","imgNWTK/square.png",""
"2831.300000011921","","","survey-number","92","1965138","0.0-15.0-0.8","female","19","Australia","20090","26101","imgNWTK/square.png","imgNWTK/triangle.png","imgNWTK/square.png","imgNWTK/triangle.png","noninfo","sub","3.31","{""undefined"":""109""}","","","","","","","","","","","","imgNWTK/square.png",""
"3339","","","survey-number","93","1968479","0.0-15.0-0.9","female","19","Australia","20090","26101","imgNWTK/square.png","imgNWTK/triangle.png","imgNWTK/square.png","imgNWTK/triangle.png","noninfo","sub","3.31","{""undefined"":""113""}","","","","","","","","","","","","imgNWTK/square.png",""
"15034.59999999404","","","survey-number","94","1983514","0.0-16.0","female","19","Australia","20090","26101","imgNWTK/square.png","imgNWTK/triangle.png","imgNWTK/square.png","imgNWTK/triangle.png","noninfo","sub","3.31","{""undefined"":""120""}","","","","","","","","","","","","","imgNWTK/square.png"
"4237.899999976158","","","survey-number","95","1987754","0.0-17.0","female","19","Australia","20090","26101","imgNWTK/square.png","imgNWTK/triangle.png","imgNWTK/square.png","imgNWTK/triangle.png","noninfo","sub","3.31","{""undefined"":""75""}","","","","","","","","","","","","","imgNWTK/triangle.png"
"14741","<p style=""text-align:left;"">Great! We are almost at the end of the study... (Please do not close the browser window yet.)</p><p> Your final points balance is 3315, which equals to a bonus payment of $3.31. Please collect your payment from Mathews Building Room 721 (Mon-Fri 9am-5pm); please email amy.x.li@unsw.edu.au at least 24 hours prior to collection so that this is ready for you.</p><p style=""text-align:left;"">To view the debriefing form, please click <a href=""./imgNWTK/debrief_3205.pdf"" target=""_blank"">here</a> to download a copy.</p><p style=""text-align:left;"">Then, <b>please click the below button</b> to confirm that you have received your debrief and to complete the study. Upon clicking ""Finish!"", your SONA credit will be automatically assigned.</p>","0","html-button-response","96","2002496","0.0-18.0","female","19","Australia","20090","26101","imgNWTK/square.png","imgNWTK/triangle.png","imgNWTK/square.png","imgNWTK/triangle.png","noninfo","sub","3.31","","","","","","","","","","","","","",""
