"rt","stimulus","button_pressed","trial_type","trial_index","time_elapsed","internal_node_id","gender","age","language","PID","sona_id","subStim","optStim","stim1","stim2","infoCond","optimCond","bonus","responses","banditTrial","choice","cue","feedback","estimateData","leftOption","rightOption","choiceName","leftInput","rightInput","key_press","postQ","singleEst"
"6824","<p>Thank you for signing up to participate in SONA Study 476! <br> During this study, please focus on the experiment and refrain from activities such as:</p>- <b>Switching to other tabs on your browser (this will be monitored via the experiment)</br> - Using your mobile phone/cell phone</br> - Communicating with others</br></br></b><p>This way, you are helping to provide data that is useful for psychological research. We thank you for your cooperation!</p>","0","html-button-response","0","6830","0.0-0.0","non-binary","18","Australia","38674","24660","neither","neither","imgNWTK/KeepItSecret.jpg","imgNWTK/FindOutNow.jpg","info","eq","3.28","","","","","","","","","","","","","",""
"2446","<p>Welcome to the experiment!</p><p>You will now read some instructions about the task. Press the 'Next' button to continue. </p>","0","html-button-response","1","9278","0.0-1.0","non-binary","18","Australia","38674","24660","neither","neither","imgNWTK/KeepItSecret.jpg","imgNWTK/FindOutNow.jpg","info","eq","3.28","","","","","","","","","","","","","",""
"25326","<p> On each trial throughout the experiment you will choose between the options </br><b> Find Out Now </b> and <b> Keep It Secret </b>, as shown below.</p><div><div style= 'float: left; width: 300px; margin: 10px 10px;'><img src= 'imgNWTK/KeepItSecret.jpg'></img></div><div style= 'float: right; width: 300px; margin: 10px 10px;'><img src= 'imgNWTK/FindOutNow.jpg'></img></div></div><br/><br/><br/><br/><br/><br/><br/><br/><br/><br/><br/><p>Each option results in winning points or receiving 0 points.</br>There is a 50% chance of either winning or receiving 0 points.</p><p>You won't receive the outcome until after a <b> 20 second delay</b>. However, selecting the Find Out Now option will allow you to find out about the outcome early, whereas the Keep It Secret option will not. </p>","0","html-button-response","2","34605","0.0-2.0-0.0","non-binary","18","Australia","38674","24660","neither","neither","imgNWTK/KeepItSecret.jpg","imgNWTK/FindOutNow.jpg","info","eq","3.28","","","","","","","","","","","","","",""
"13037","<img src= 'cues/Experiment6.png'></img><p>As seen above, when choosing the <b>'Find Out Now'</b> option, you will receive either a happy face or sad face.</br>The happy face means you will win points after the delay, whereas the sad face means you will receive 0 points.</br></p><p> When choosing the <b> 'Keep it Secret' </b> option you will receive a confused face.</br> This face appears regardless of whether you are going to win points or not. </p>In short, choosing 'Find Out Now' allows you to find out the outcome before you experience it (after the delay).</br></br>","0","html-button-response","3","47644","0.0-2.0-1.0","non-binary","18","Australia","38674","24660","neither","neither","imgNWTK/KeepItSecret.jpg","imgNWTK/FindOutNow.jpg","info","eq","3.28","","","","","","","","","","","","","",""
"8355","<img src= 'cues/winTrials_info.png' width = '1200'></img><p>To reiterate, 50% of the outcomes of each option will be WIN TRIALS, and the other 50% will be NO-WIN TRIALS.","0","html-button-response","4","56001","0.0-2.0-2.0","non-binary","18","Australia","38674","24660","neither","neither","imgNWTK/KeepItSecret.jpg","imgNWTK/FindOutNow.jpg","info","eq","3.28","","","","","","","","","","","","","",""
"12929","<p> There will be <b>four blocks</b> in the experiment.</br>You will be given a short 15 second break between each block.</p><p><b>The points and the options will remain the same between the blocks.</b></p>The blocks are there just to give you a small break.</br></br><p>The points you earn in the task are also equal to <b> actual money</b>.</br> <b>1000 points is equal to $1.</b></p><p>This is the rate you will be paid at the experiment's end.","0","html-button-response","5","68932","0.0-2.0-3.0","non-binary","18","Australia","38674","24660","neither","neither","imgNWTK/KeepItSecret.jpg","imgNWTK/FindOutNow.jpg","info","eq","3.28","","","","","","","","","","","","","",""
"23473","","","survey-multi-choice","6","92415","0.0-2.0-4.0","non-binary","18","Australia","38674","24660","neither","neither","imgNWTK/KeepItSecret.jpg","imgNWTK/FindOutNow.jpg","info","eq","3.28","{""Q0"":""20 Seconds"",""Q1"":""True"",""Q2"":""Equally"",""Q3"":""True""}","","","","","","","","","","","","",""
"3016","<p> Well done, all your answers were correct! <br> The experiment is about to start now. <br/> Click start to continue, or email your researcher <b>(amy.x.li@unsw.edu.au)</b> if you have any questions before starting.","0","html-button-response","7","95440","0.0-3.0","non-binary","18","Australia","38674","24660","neither","neither","imgNWTK/KeepItSecret.jpg","imgNWTK/FindOutNow.jpg","info","eq","3.28","","","","","","","","","","","","","",""
"2226","","","bandit-task-exp6","8","119685","0.0-4.0-0.0","non-binary","18","Australia","38674","24660","neither","neither","imgNWTK/KeepItSecret.jpg","imgNWTK/FindOutNow.jpg","info","eq","3.28","","1","1","2","0","null","imgNWTK/FindOutNow.jpg","imgNWTK/KeepItSecret.jpg","imgNWTK/KeepItSecret.jpg","NaN","NaN","","",""
"1277","","","bandit-task-exp6","9","145273","0.0-4.0-0.1","non-binary","18","Australia","38674","24660","neither","neither","imgNWTK/KeepItSecret.jpg","imgNWTK/FindOutNow.jpg","info","eq","3.28","","2","2","2","98","null","imgNWTK/KeepItSecret.jpg","imgNWTK/FindOutNow.jpg","imgNWTK/FindOutNow.jpg","NaN","NaN","","",""
"1239","","","bandit-task-exp6","10","168407","0.0-4.0-0.2","non-binary","18","Australia","38674","24660","neither","neither","imgNWTK/KeepItSecret.jpg","imgNWTK/FindOutNow.jpg","info","eq","3.28","","3","2","1","0","null","imgNWTK/FindOutNow.jpg","imgNWTK/KeepItSecret.jpg","imgNWTK/FindOutNow.jpg","NaN","NaN","","",""
"1529","","","bandit-task-exp6","11","191883","0.0-4.0-0.3","non-binary","18","Australia","38674","24660","neither","neither","imgNWTK/KeepItSecret.jpg","imgNWTK/FindOutNow.jpg","info","eq","3.28","","4","2","1","0","null","imgNWTK/KeepItSecret.jpg","imgNWTK/FindOutNow.jpg","imgNWTK/FindOutNow.jpg","NaN","NaN","","",""
"1497","","","bandit-task-exp6","12","215311","0.0-4.0-0.4","non-binary","18","Australia","38674","24660","neither","neither","imgNWTK/KeepItSecret.jpg","imgNWTK/FindOutNow.jpg","info","eq","3.28","","5","2","1","0","null","imgNWTK/FindOutNow.jpg","imgNWTK/KeepItSecret.jpg","imgNWTK/FindOutNow.jpg","NaN","NaN","","",""
"1052","","","bandit-task-exp6","13","239251","0.0-4.0-0.5","non-binary","18","Australia","38674","24660","neither","neither","imgNWTK/KeepItSecret.jpg","imgNWTK/FindOutNow.jpg","info","eq","3.28","","6","2","2","92","null","imgNWTK/KeepItSecret.jpg","imgNWTK/FindOutNow.jpg","imgNWTK/FindOutNow.jpg","NaN","NaN","","",""
"1084","","","bandit-task-exp6","14","263114","0.0-4.0-0.6","non-binary","18","Australia","38674","24660","neither","neither","imgNWTK/KeepItSecret.jpg","imgNWTK/FindOutNow.jpg","info","eq","3.28","","7","2","1","0","null","imgNWTK/FindOutNow.jpg","imgNWTK/KeepItSecret.jpg","imgNWTK/FindOutNow.jpg","NaN","NaN","","",""
"1590","","","bandit-task-exp6","15","287546","0.0-4.0-0.7","non-binary","18","Australia","38674","24660","neither","neither","imgNWTK/KeepItSecret.jpg","imgNWTK/FindOutNow.jpg","info","eq","3.28","","8","1","2","0","null","imgNWTK/KeepItSecret.jpg","imgNWTK/FindOutNow.jpg","imgNWTK/KeepItSecret.jpg","NaN","NaN","","",""
"1112","","","bandit-task-exp6","16","310900","0.0-4.0-0.8","non-binary","18","Australia","38674","24660","neither","neither","imgNWTK/KeepItSecret.jpg","imgNWTK/FindOutNow.jpg","info","eq","3.28","","9","2","2","103","null","imgNWTK/FindOutNow.jpg","imgNWTK/KeepItSecret.jpg","imgNWTK/FindOutNow.jpg","NaN","NaN","","",""
"1128","","","bandit-task-exp6","17","334534","0.0-4.0-0.9","non-binary","18","Australia","38674","24660","neither","neither","imgNWTK/KeepItSecret.jpg","imgNWTK/FindOutNow.jpg","info","eq","3.28","","10","1","1","102","null","imgNWTK/FindOutNow.jpg","imgNWTK/KeepItSecret.jpg","imgNWTK/KeepItSecret.jpg","NaN","NaN","","",""
"1861","","","bandit-task-exp6","18","358332","0.0-4.0-0.10","non-binary","18","Australia","38674","24660","neither","neither","imgNWTK/KeepItSecret.jpg","imgNWTK/FindOutNow.jpg","info","eq","3.28","","11","2","2","90","null","imgNWTK/FindOutNow.jpg","imgNWTK/KeepItSecret.jpg","imgNWTK/FindOutNow.jpg","NaN","NaN","","",""
"1522","","","bandit-task-exp6","19","381921","0.0-4.0-0.11","non-binary","18","Australia","38674","24660","neither","neither","imgNWTK/KeepItSecret.jpg","imgNWTK/FindOutNow.jpg","info","eq","3.28","","12","1","2","0","null","imgNWTK/KeepItSecret.jpg","imgNWTK/FindOutNow.jpg","imgNWTK/KeepItSecret.jpg","NaN","NaN","","",""
"1195","","","bandit-task-exp6","20","405126","0.0-4.0-0.12","non-binary","18","Australia","38674","24660","neither","neither","imgNWTK/KeepItSecret.jpg","imgNWTK/FindOutNow.jpg","info","eq","3.28","","13","2","2","110","null","imgNWTK/KeepItSecret.jpg","imgNWTK/FindOutNow.jpg","imgNWTK/FindOutNow.jpg","NaN","NaN","","",""
"1351","","","bandit-task-exp6","21","428581","0.0-4.0-0.13","non-binary","18","Australia","38674","24660","neither","neither","imgNWTK/KeepItSecret.jpg","imgNWTK/FindOutNow.jpg","info","eq","3.28","","14","1","1","109","null","imgNWTK/FindOutNow.jpg","imgNWTK/KeepItSecret.jpg","imgNWTK/KeepItSecret.jpg","NaN","NaN","","",""
"1203","","","bandit-task-exp6","22","451725","0.0-4.0-0.14","non-binary","18","Australia","38674","24660","neither","neither","imgNWTK/KeepItSecret.jpg","imgNWTK/FindOutNow.jpg","info","eq","3.28","","15","2","2","94","null","imgNWTK/KeepItSecret.jpg","imgNWTK/FindOutNow.jpg","imgNWTK/FindOutNow.jpg","NaN","NaN","","",""
"null","<p><b> Congratulations, you have finished this block. </b> </p><p>Please take a short break before moving onto the next block.</p><p>The next block will start after a 15 second break.</p><b>Remember, the point rewards are the same between blocks","","html-keyboard-response","23","466729","0.0-5.0","non-binary","18","Australia","38674","24660","neither","neither","imgNWTK/KeepItSecret.jpg","imgNWTK/FindOutNow.jpg","info","eq","3.28","","","","","","","","","","","","null","",""
"10588","","","bandit-task-exp6","24","499362","0.0-6.0-0.0","non-binary","18","Australia","38674","24660","neither","neither","imgNWTK/KeepItSecret.jpg","imgNWTK/FindOutNow.jpg","info","eq","3.28","","16","1","2","0","null","imgNWTK/FindOutNow.jpg","imgNWTK/KeepItSecret.jpg","imgNWTK/KeepItSecret.jpg","NaN","NaN","","",""
"1196","","","bandit-task-exp6","25","522253","0.0-6.0-0.1","non-binary","18","Australia","38674","24660","neither","neither","imgNWTK/KeepItSecret.jpg","imgNWTK/FindOutNow.jpg","info","eq","3.28","","17","2","2","101","null","imgNWTK/KeepItSecret.jpg","imgNWTK/FindOutNow.jpg","imgNWTK/FindOutNow.jpg","NaN","NaN","","",""
"1707","","","bandit-task-exp6","26","546788","0.0-6.0-0.2","non-binary","18","Australia","38674","24660","neither","neither","imgNWTK/KeepItSecret.jpg","imgNWTK/FindOutNow.jpg","info","eq","3.28","","18","1","1","101","null","imgNWTK/KeepItSecret.jpg","imgNWTK/FindOutNow.jpg","imgNWTK/KeepItSecret.jpg","NaN","NaN","","",""
"4695","","","bandit-task-exp6","27","573424","0.0-6.0-0.3","non-binary","18","Australia","38674","24660","neither","neither","imgNWTK/KeepItSecret.jpg","imgNWTK/FindOutNow.jpg","info","eq","3.28","","19","1","1","108","null","imgNWTK/FindOutNow.jpg","imgNWTK/KeepItSecret.jpg","imgNWTK/KeepItSecret.jpg","NaN","NaN","","",""
"1729","","","bandit-task-exp6","28","596894","0.0-6.0-0.4","non-binary","18","Australia","38674","24660","neither","neither","imgNWTK/KeepItSecret.jpg","imgNWTK/FindOutNow.jpg","info","eq","3.28","","20","2","2","110","null","imgNWTK/KeepItSecret.jpg","imgNWTK/FindOutNow.jpg","imgNWTK/FindOutNow.jpg","NaN","NaN","","",""
"1255","","","bandit-task-exp6","29","620015","0.0-6.0-0.5","non-binary","18","Australia","38674","24660","neither","neither","imgNWTK/KeepItSecret.jpg","imgNWTK/FindOutNow.jpg","info","eq","3.28","","21","2","2","103","null","imgNWTK/FindOutNow.jpg","imgNWTK/KeepItSecret.jpg","imgNWTK/FindOutNow.jpg","NaN","NaN","","",""
"774","","","bandit-task-exp6","30","642665","0.0-6.0-0.6","non-binary","18","Australia","38674","24660","neither","neither","imgNWTK/KeepItSecret.jpg","imgNWTK/FindOutNow.jpg","info","eq","3.28","","22","1","1","96","null","imgNWTK/FindOutNow.jpg","imgNWTK/KeepItSecret.jpg","imgNWTK/KeepItSecret.jpg","NaN","NaN","","",""
"5483","","","bandit-task-exp6","31","670014","0.0-6.0-0.7","non-binary","18","Australia","38674","24660","neither","neither","imgNWTK/KeepItSecret.jpg","imgNWTK/FindOutNow.jpg","info","eq","3.28","","23","1","2","0","null","imgNWTK/FindOutNow.jpg","imgNWTK/KeepItSecret.jpg","imgNWTK/KeepItSecret.jpg","NaN","NaN","","",""
"684","","","bandit-task-exp6","32","692875","0.0-6.0-0.8","non-binary","18","Australia","38674","24660","neither","neither","imgNWTK/KeepItSecret.jpg","imgNWTK/FindOutNow.jpg","info","eq","3.28","","24","2","2","93","null","imgNWTK/FindOutNow.jpg","imgNWTK/KeepItSecret.jpg","imgNWTK/FindOutNow.jpg","NaN","NaN","","",""
"2449","","","bandit-task-exp6","33","717150","0.0-6.0-0.9","non-binary","18","Australia","38674","24660","neither","neither","imgNWTK/KeepItSecret.jpg","imgNWTK/FindOutNow.jpg","info","eq","3.28","","25","2","2","96","null","imgNWTK/FindOutNow.jpg","imgNWTK/KeepItSecret.jpg","imgNWTK/FindOutNow.jpg","NaN","NaN","","",""
"720","","","bandit-task-exp6","34","740158","0.0-6.0-0.10","non-binary","18","Australia","38674","24660","neither","neither","imgNWTK/KeepItSecret.jpg","imgNWTK/FindOutNow.jpg","info","eq","3.28","","26","1","2","0","null","imgNWTK/FindOutNow.jpg","imgNWTK/KeepItSecret.jpg","imgNWTK/KeepItSecret.jpg","NaN","NaN","","",""
"956","","","bandit-task-exp6","35","763048","0.0-6.0-0.11","non-binary","18","Australia","38674","24660","neither","neither","imgNWTK/KeepItSecret.jpg","imgNWTK/FindOutNow.jpg","info","eq","3.28","","27","2","1","0","null","imgNWTK/FindOutNow.jpg","imgNWTK/KeepItSecret.jpg","imgNWTK/FindOutNow.jpg","NaN","NaN","","",""
"1690","","","bandit-task-exp6","36","787729","0.0-6.0-0.12","non-binary","18","Australia","38674","24660","neither","neither","imgNWTK/KeepItSecret.jpg","imgNWTK/FindOutNow.jpg","info","eq","3.28","","28","2","2","93","null","imgNWTK/KeepItSecret.jpg","imgNWTK/FindOutNow.jpg","imgNWTK/FindOutNow.jpg","NaN","NaN","","",""
"1330","","","bandit-task-exp6","37","811034","0.0-6.0-0.13","non-binary","18","Australia","38674","24660","neither","neither","imgNWTK/KeepItSecret.jpg","imgNWTK/FindOutNow.jpg","info","eq","3.28","","29","2","2","102","null","imgNWTK/KeepItSecret.jpg","imgNWTK/FindOutNow.jpg","imgNWTK/FindOutNow.jpg","NaN","NaN","","",""
"1078","","","bandit-task-exp6","38","834825","0.0-6.0-0.14","non-binary","18","Australia","38674","24660","neither","neither","imgNWTK/KeepItSecret.jpg","imgNWTK/FindOutNow.jpg","info","eq","3.28","","30","2","1","0","null","imgNWTK/FindOutNow.jpg","imgNWTK/KeepItSecret.jpg","imgNWTK/FindOutNow.jpg","NaN","NaN","","",""
"null","<p><b> Congratulations, you have finished this block. </b> </p><p>Please take a short break before moving onto the next block.</p><p>The next block will start after a 15 second break.</p><b>Remember, the point rewards are the same between blocks","","html-keyboard-response","39","850554","0.0-7.0","non-binary","18","Australia","38674","24660","neither","neither","imgNWTK/KeepItSecret.jpg","imgNWTK/FindOutNow.jpg","info","eq","3.28","","","","","","","","","","","","null","",""
"2356","","","bandit-task-exp6","40","875418","0.0-8.0-0.0","non-binary","18","Australia","38674","24660","neither","neither","imgNWTK/KeepItSecret.jpg","imgNWTK/FindOutNow.jpg","info","eq","3.28","","31","1","2","0","null","imgNWTK/FindOutNow.jpg","imgNWTK/KeepItSecret.jpg","imgNWTK/KeepItSecret.jpg","NaN","NaN","","",""
"1151","","","bandit-task-exp6","41","899179","0.0-8.0-0.1","non-binary","18","Australia","38674","24660","neither","neither","imgNWTK/KeepItSecret.jpg","imgNWTK/FindOutNow.jpg","info","eq","3.28","","32","2","1","0","null","imgNWTK/FindOutNow.jpg","imgNWTK/KeepItSecret.jpg","imgNWTK/FindOutNow.jpg","NaN","NaN","","",""
"1138","","","bandit-task-exp6","42","921973","0.0-8.0-0.2","non-binary","18","Australia","38674","24660","neither","neither","imgNWTK/KeepItSecret.jpg","imgNWTK/FindOutNow.jpg","info","eq","3.28","","33","2","1","0","null","imgNWTK/KeepItSecret.jpg","imgNWTK/FindOutNow.jpg","imgNWTK/FindOutNow.jpg","NaN","NaN","","",""
"1187","","","bandit-task-exp6","43","945557","0.0-8.0-0.3","non-binary","18","Australia","38674","24660","neither","neither","imgNWTK/KeepItSecret.jpg","imgNWTK/FindOutNow.jpg","info","eq","3.28","","34","1","1","102","null","imgNWTK/FindOutNow.jpg","imgNWTK/KeepItSecret.jpg","imgNWTK/KeepItSecret.jpg","NaN","NaN","","",""
"868","","","bandit-task-exp6","44","968210","0.0-8.0-0.4","non-binary","18","Australia","38674","24660","neither","neither","imgNWTK/KeepItSecret.jpg","imgNWTK/FindOutNow.jpg","info","eq","3.28","","35","2","1","0","null","imgNWTK/KeepItSecret.jpg","imgNWTK/FindOutNow.jpg","imgNWTK/FindOutNow.jpg","NaN","NaN","","",""
"1302","","","bandit-task-exp6","45","992006","0.0-8.0-0.5","non-binary","18","Australia","38674","24660","neither","neither","imgNWTK/KeepItSecret.jpg","imgNWTK/FindOutNow.jpg","info","eq","3.28","","36","1","1","91","null","imgNWTK/FindOutNow.jpg","imgNWTK/KeepItSecret.jpg","imgNWTK/KeepItSecret.jpg","NaN","NaN","","",""
"957","","","bandit-task-exp6","46","1015229","0.0-8.0-0.6","non-binary","18","Australia","38674","24660","neither","neither","imgNWTK/KeepItSecret.jpg","imgNWTK/FindOutNow.jpg","info","eq","3.28","","37","1","2","0","null","imgNWTK/KeepItSecret.jpg","imgNWTK/FindOutNow.jpg","imgNWTK/KeepItSecret.jpg","NaN","NaN","","",""
"1128","","","bandit-task-exp6","47","1044596","0.0-8.0-0.7","non-binary","18","Australia","38674","24660","neither","neither","imgNWTK/KeepItSecret.jpg","imgNWTK/FindOutNow.jpg","info","eq","3.28","","38","1","2","0","null","imgNWTK/FindOutNow.jpg","imgNWTK/KeepItSecret.jpg","imgNWTK/KeepItSecret.jpg","NaN","NaN","","",""
"1092","","","bandit-task-exp6","48","1067624","0.0-8.0-0.8","non-binary","18","Australia","38674","24660","neither","neither","imgNWTK/KeepItSecret.jpg","imgNWTK/FindOutNow.jpg","info","eq","3.28","","39","1","1","102","null","imgNWTK/FindOutNow.jpg","imgNWTK/KeepItSecret.jpg","imgNWTK/KeepItSecret.jpg","NaN","NaN","","",""
"1462","","","bandit-task-exp6","49","1090829","0.0-8.0-0.9","non-binary","18","Australia","38674","24660","neither","neither","imgNWTK/KeepItSecret.jpg","imgNWTK/FindOutNow.jpg","info","eq","3.28","","40","2","2","92","null","imgNWTK/FindOutNow.jpg","imgNWTK/KeepItSecret.jpg","imgNWTK/FindOutNow.jpg","NaN","NaN","","",""
"884","","","bandit-task-exp6","50","1119438","0.0-8.0-0.10","non-binary","18","Australia","38674","24660","neither","neither","imgNWTK/KeepItSecret.jpg","imgNWTK/FindOutNow.jpg","info","eq","3.28","","41","2","2","90","null","imgNWTK/KeepItSecret.jpg","imgNWTK/FindOutNow.jpg","imgNWTK/FindOutNow.jpg","NaN","NaN","","",""
"6101","","","bandit-task-exp6","51","1148454","0.0-8.0-0.11","non-binary","18","Australia","38674","24660","neither","neither","imgNWTK/KeepItSecret.jpg","imgNWTK/FindOutNow.jpg","info","eq","3.28","","42","2","2","99","null","imgNWTK/KeepItSecret.jpg","imgNWTK/FindOutNow.jpg","imgNWTK/FindOutNow.jpg","NaN","NaN","","",""
"1285","","","bandit-task-exp6","52","1172374","0.0-8.0-0.12","non-binary","18","Australia","38674","24660","neither","neither","imgNWTK/KeepItSecret.jpg","imgNWTK/FindOutNow.jpg","info","eq","3.28","","43","2","2","95","null","imgNWTK/FindOutNow.jpg","imgNWTK/KeepItSecret.jpg","imgNWTK/FindOutNow.jpg","NaN","NaN","","",""
"1012","","","bandit-task-exp6","53","1195300","0.0-8.0-0.13","non-binary","18","Australia","38674","24660","neither","neither","imgNWTK/KeepItSecret.jpg","imgNWTK/FindOutNow.jpg","info","eq","3.28","","44","2","2","96","null","imgNWTK/FindOutNow.jpg","imgNWTK/KeepItSecret.jpg","imgNWTK/FindOutNow.jpg","NaN","NaN","","",""
"997","","","bandit-task-exp6","54","1218544","0.0-8.0-0.14","non-binary","18","Australia","38674","24660","neither","neither","imgNWTK/KeepItSecret.jpg","imgNWTK/FindOutNow.jpg","info","eq","3.28","","45","2","1","0","null","imgNWTK/KeepItSecret.jpg","imgNWTK/FindOutNow.jpg","imgNWTK/FindOutNow.jpg","NaN","NaN","","",""
"null","<p><b> Congratulations, you have finished this block. </b> </p><p>Please take a short break before moving onto the next block.</p><p>The next block will start after a 15 second break.</p><b>Remember, the point rewards are the same between blocks","","html-keyboard-response","55","1233556","0.0-9.0","non-binary","18","Australia","38674","24660","neither","neither","imgNWTK/KeepItSecret.jpg","imgNWTK/FindOutNow.jpg","info","eq","3.28","","","","","","","","","","","","null","",""
"21882","","","bandit-task-exp6","56","1277388","0.0-10.0-0.0","non-binary","18","Australia","38674","24660","neither","neither","imgNWTK/KeepItSecret.jpg","imgNWTK/FindOutNow.jpg","info","eq","3.28","","46","2","1","0","null","imgNWTK/KeepItSecret.jpg","imgNWTK/FindOutNow.jpg","imgNWTK/FindOutNow.jpg","96","96","","",""
"7266","","","bandit-task-exp6","57","1307066","0.0-10.0-0.1","non-binary","18","Australia","38674","24660","neither","neither","imgNWTK/KeepItSecret.jpg","imgNWTK/FindOutNow.jpg","info","eq","3.28","","47","2","2","108","null","imgNWTK/KeepItSecret.jpg","imgNWTK/FindOutNow.jpg","imgNWTK/FindOutNow.jpg","96","96","","",""
"5102","","","bandit-task-exp6","58","1334632","0.0-10.0-0.2","non-binary","18","Australia","38674","24660","neither","neither","imgNWTK/KeepItSecret.jpg","imgNWTK/FindOutNow.jpg","info","eq","3.28","","48","1","2","0","null","imgNWTK/KeepItSecret.jpg","imgNWTK/FindOutNow.jpg","imgNWTK/KeepItSecret.jpg","96","96","","",""
"5392","","","bandit-task-exp6","59","1361800","0.0-10.0-0.3","non-binary","18","Australia","38674","24660","neither","neither","imgNWTK/KeepItSecret.jpg","imgNWTK/FindOutNow.jpg","info","eq","3.28","","49","1","1","90","null","imgNWTK/KeepItSecret.jpg","imgNWTK/FindOutNow.jpg","imgNWTK/KeepItSecret.jpg","96","96","","",""
"4323","","","bandit-task-exp6","60","1392698","0.0-10.0-0.4","non-binary","18","Australia","38674","24660","neither","neither","imgNWTK/KeepItSecret.jpg","imgNWTK/FindOutNow.jpg","info","eq","3.28","","50","2","2","92","null","imgNWTK/KeepItSecret.jpg","imgNWTK/FindOutNow.jpg","imgNWTK/FindOutNow.jpg","96","96","","",""
"5712","","","bandit-task-exp6","61","1420450","0.0-10.0-0.5","non-binary","18","Australia","38674","24660","neither","neither","imgNWTK/KeepItSecret.jpg","imgNWTK/FindOutNow.jpg","info","eq","3.28","","51","2","2","101","null","imgNWTK/KeepItSecret.jpg","imgNWTK/FindOutNow.jpg","imgNWTK/FindOutNow.jpg","96","96","","",""
"4857","","","bandit-task-exp6","62","1447511","0.0-10.0-0.6","non-binary","18","Australia","38674","24660","neither","neither","imgNWTK/KeepItSecret.jpg","imgNWTK/FindOutNow.jpg","info","eq","3.28","","52","2","1","0","null","imgNWTK/KeepItSecret.jpg","imgNWTK/FindOutNow.jpg","imgNWTK/FindOutNow.jpg","96","96","","",""
"4156","","","bandit-task-exp6","63","1473719","0.0-10.0-0.7","non-binary","18","Australia","38674","24660","neither","neither","imgNWTK/KeepItSecret.jpg","imgNWTK/FindOutNow.jpg","info","eq","3.28","","53","1","2","0","null","imgNWTK/FindOutNow.jpg","imgNWTK/KeepItSecret.jpg","imgNWTK/KeepItSecret.jpg","96","96","","",""
"4723","","","bandit-task-exp6","64","1500750","0.0-10.0-0.8","non-binary","18","Australia","38674","24660","neither","neither","imgNWTK/KeepItSecret.jpg","imgNWTK/FindOutNow.jpg","info","eq","3.28","","54","2","1","0","null","imgNWTK/KeepItSecret.jpg","imgNWTK/FindOutNow.jpg","imgNWTK/FindOutNow.jpg","96","96","","",""
"5205","","","bandit-task-exp6","65","1527907","0.0-10.0-0.9","non-binary","18","Australia","38674","24660","neither","neither","imgNWTK/KeepItSecret.jpg","imgNWTK/FindOutNow.jpg","info","eq","3.28","","55","2","1","0","null","imgNWTK/FindOutNow.jpg","imgNWTK/KeepItSecret.jpg","imgNWTK/FindOutNow.jpg","96","96","","",""
"8216","","","bandit-task-exp6","66","1557770","0.0-10.0-0.10","non-binary","18","Australia","38674","24660","neither","neither","imgNWTK/KeepItSecret.jpg","imgNWTK/FindOutNow.jpg","info","eq","3.28","","56","2","1","0","null","imgNWTK/FindOutNow.jpg","imgNWTK/KeepItSecret.jpg","imgNWTK/FindOutNow.jpg","96","96","","",""
"5680","","","bandit-task-exp6","67","1585281","0.0-10.0-0.11","non-binary","18","Australia","38674","24660","neither","neither","imgNWTK/KeepItSecret.jpg","imgNWTK/FindOutNow.jpg","info","eq","3.28","","57","1","2","0","null","imgNWTK/FindOutNow.jpg","imgNWTK/KeepItSecret.jpg","imgNWTK/KeepItSecret.jpg","96","96","","",""
"6776","","","bandit-task-exp6","68","1614048","0.0-10.0-0.12","non-binary","18","Australia","38674","24660","neither","neither","imgNWTK/KeepItSecret.jpg","imgNWTK/FindOutNow.jpg","info","eq","3.28","","58","1","1","106","null","imgNWTK/KeepItSecret.jpg","imgNWTK/FindOutNow.jpg","imgNWTK/KeepItSecret.jpg","96","96","","",""
"11836","","","bandit-task-exp6","69","1647784","0.0-10.0-0.13","non-binary","18","Australia","38674","24660","neither","neither","imgNWTK/KeepItSecret.jpg","imgNWTK/FindOutNow.jpg","info","eq","3.28","","59","2","2","107","null","imgNWTK/FindOutNow.jpg","imgNWTK/KeepItSecret.jpg","imgNWTK/FindOutNow.jpg","98","98","","",""
"6822","","","bandit-task-exp6","70","1676766","0.0-10.0-0.14","non-binary","18","Australia","38674","24660","neither","neither","imgNWTK/KeepItSecret.jpg","imgNWTK/FindOutNow.jpg","info","eq","3.28","","60","2","2","106","null","imgNWTK/KeepItSecret.jpg","imgNWTK/FindOutNow.jpg","imgNWTK/FindOutNow.jpg","98","100","","",""
"4815","<p> Congratulations, you have finished the main part of the experiment. </p><p>Before you finish, we have a few short questions about the options and outcomes you saw in the task.</p>","0","html-button-response","71","1681584","0.0-11.0","non-binary","18","Australia","38674","24660","neither","neither","imgNWTK/KeepItSecret.jpg","imgNWTK/FindOutNow.jpg","info","eq","3.28","","","","","","","","","","","","","",""
"9952","<p><b>Now, imagine that you clicked on the below button for another 10 trials (this includes <i> BOTH WIN and NO-WIN trials</i>).</p> <img src= 'imgNWTK/KeepItSecret.jpg'></img></br></br> <p><b>Please type the reward (number of points) you would expect to receive on every trial.</br> Click start to begin.</p>","0","html-button-response","72","1691538","0.0-12.0","non-binary","18","Australia","38674","24660","neither","neither","imgNWTK/KeepItSecret.jpg","imgNWTK/FindOutNow.jpg","info","eq","3.28","","","","","","","","","","","","","",""
"6234.199999928474","","","survey-number","73","1697780","0.0-13.0-0.0","non-binary","18","Australia","38674","24660","neither","neither","imgNWTK/KeepItSecret.jpg","imgNWTK/FindOutNow.jpg","info","eq","3.28","{""undefined"":""98""}","","","","","","","","","","","","imgNWTK/KeepItSecret.jpg",""
"3210.5999999046326","","","survey-number","74","1700997","0.0-13.0-0.1","non-binary","18","Australia","38674","24660","neither","neither","imgNWTK/KeepItSecret.jpg","imgNWTK/FindOutNow.jpg","info","eq","3.28","{""undefined"":""106""}","","","","","","","","","","","","imgNWTK/KeepItSecret.jpg",""
"2770.5","","","survey-number","75","1703771","0.0-13.0-0.2","non-binary","18","Australia","38674","24660","neither","neither","imgNWTK/KeepItSecret.jpg","imgNWTK/FindOutNow.jpg","info","eq","3.28","{""undefined"":""96""}","","","","","","","","","","","","imgNWTK/KeepItSecret.jpg",""
"10409.399999976158","","","survey-number","76","1714186","0.0-13.0-0.3","non-binary","18","Australia","38674","24660","neither","neither","imgNWTK/KeepItSecret.jpg","imgNWTK/FindOutNow.jpg","info","eq","3.28","{""undefined"":""98""}","","","","","","","","","","","","imgNWTK/KeepItSecret.jpg",""
"2759.5","","","survey-number","77","1716951","0.0-13.0-0.4","non-binary","18","Australia","38674","24660","neither","neither","imgNWTK/KeepItSecret.jpg","imgNWTK/FindOutNow.jpg","info","eq","3.28","{""undefined"":""102""}","","","","","","","","","","","","imgNWTK/KeepItSecret.jpg",""
"3441.100000023842","","","survey-number","78","1720397","0.0-13.0-0.5","non-binary","18","Australia","38674","24660","neither","neither","imgNWTK/KeepItSecret.jpg","imgNWTK/FindOutNow.jpg","info","eq","3.28","{""undefined"":""98""}","","","","","","","","","","","","imgNWTK/KeepItSecret.jpg",""
"2781.899999976158","","","survey-number","79","1723185","0.0-13.0-0.6","non-binary","18","Australia","38674","24660","neither","neither","imgNWTK/KeepItSecret.jpg","imgNWTK/FindOutNow.jpg","info","eq","3.28","{""undefined"":""96""}","","","","","","","","","","","","imgNWTK/KeepItSecret.jpg",""
"2203","","","survey-number","80","1725393","0.0-13.0-0.7","non-binary","18","Australia","38674","24660","neither","neither","imgNWTK/KeepItSecret.jpg","imgNWTK/FindOutNow.jpg","info","eq","3.28","{""undefined"":""100""}","","","","","","","","","","","","imgNWTK/KeepItSecret.jpg",""
"2368.2000000476837","","","survey-number","81","1727766","0.0-13.0-0.8","non-binary","18","Australia","38674","24660","neither","neither","imgNWTK/KeepItSecret.jpg","imgNWTK/FindOutNow.jpg","info","eq","3.28","{""undefined"":""102""}","","","","","","","","","","","","imgNWTK/KeepItSecret.jpg",""
"2421.100000023842","","","survey-number","82","1730191","0.0-13.0-0.9","non-binary","18","Australia","38674","24660","neither","neither","imgNWTK/KeepItSecret.jpg","imgNWTK/FindOutNow.jpg","info","eq","3.28","{""undefined"":""108""}","","","","","","","","","","","","imgNWTK/KeepItSecret.jpg",""
"1568","<p><b>Imagine that you clicked on the below button for another 10 trials (this includes <i> both WIN and NO-WIN trials</i>).</p> <img src= 'imgNWTK/FindOutNow.jpg'></img></br></br> <p><b>Please type the reward (number of points) you would expect to receive on every trial.</br> Click start to begin.</p>","0","html-button-response","83","1731761","0.0-14.0","non-binary","18","Australia","38674","24660","neither","neither","imgNWTK/KeepItSecret.jpg","imgNWTK/FindOutNow.jpg","info","eq","3.28","","","","","","","","","","","","","",""
"2566.7999999523163","","","survey-number","84","1734333","0.0-15.0-0.0","non-binary","18","Australia","38674","24660","neither","neither","imgNWTK/KeepItSecret.jpg","imgNWTK/FindOutNow.jpg","info","eq","3.28","{""undefined"":""108""}","","","","","","","","","","","","imgNWTK/FindOutNow.jpg",""
"1936.6000000238419","","","survey-number","85","1736275","0.0-15.0-0.1","non-binary","18","Australia","38674","24660","neither","neither","imgNWTK/KeepItSecret.jpg","imgNWTK/FindOutNow.jpg","info","eq","3.28","{""undefined"":""100""}","","","","","","","","","","","","imgNWTK/FindOutNow.jpg",""
"1643.3000000715256","","","survey-number","86","1737922","0.0-15.0-0.2","non-binary","18","Australia","38674","24660","neither","neither","imgNWTK/KeepItSecret.jpg","imgNWTK/FindOutNow.jpg","info","eq","3.28","{""undefined"":""96""}","","","","","","","","","","","","imgNWTK/FindOutNow.jpg",""
"1337.3999999761581","","","survey-number","87","1739264","0.0-15.0-0.3","non-binary","18","Australia","38674","24660","neither","neither","imgNWTK/KeepItSecret.jpg","imgNWTK/FindOutNow.jpg","info","eq","3.28","{""undefined"":""98""}","","","","","","","","","","","","imgNWTK/FindOutNow.jpg",""
"4539.5","","","survey-number","88","1743807","0.0-15.0-0.4","non-binary","18","Australia","38674","24660","neither","neither","imgNWTK/KeepItSecret.jpg","imgNWTK/FindOutNow.jpg","info","eq","3.28","{""undefined"":""100""}","","","","","","","","","","","","imgNWTK/FindOutNow.jpg",""
"2606.8000000715256","","","survey-number","89","1746419","0.0-15.0-0.5","non-binary","18","Australia","38674","24660","neither","neither","imgNWTK/KeepItSecret.jpg","imgNWTK/FindOutNow.jpg","info","eq","3.28","{""undefined"":""102""}","","","","","","","","","","","","imgNWTK/FindOutNow.jpg",""
"2335.3000000715256","","","survey-number","90","1748760","0.0-15.0-0.6","non-binary","18","Australia","38674","24660","neither","neither","imgNWTK/KeepItSecret.jpg","imgNWTK/FindOutNow.jpg","info","eq","3.28","{""undefined"":""98""}","","","","","","","","","","","","imgNWTK/FindOutNow.jpg",""
"2317","","","survey-number","91","1751081","0.0-15.0-0.7","non-binary","18","Australia","38674","24660","neither","neither","imgNWTK/KeepItSecret.jpg","imgNWTK/FindOutNow.jpg","info","eq","3.28","{""undefined"":""102""}","","","","","","","","","","","","imgNWTK/FindOutNow.jpg",""
"2324","","","survey-number","92","1753409","0.0-15.0-0.8","non-binary","18","Australia","38674","24660","neither","neither","imgNWTK/KeepItSecret.jpg","imgNWTK/FindOutNow.jpg","info","eq","3.28","{""undefined"":""96""}","","","","","","","","","","","","imgNWTK/FindOutNow.jpg",""
"2330.899999976158","","","survey-number","93","1755745","0.0-15.0-0.9","non-binary","18","Australia","38674","24660","neither","neither","imgNWTK/KeepItSecret.jpg","imgNWTK/FindOutNow.jpg","info","eq","3.28","{""undefined"":""100""}","","","","","","","","","","","","imgNWTK/FindOutNow.jpg",""
"25490.899999976158","","","survey-number","94","1781259","0.0-16.0","non-binary","18","Australia","38674","24660","neither","neither","imgNWTK/KeepItSecret.jpg","imgNWTK/FindOutNow.jpg","info","eq","3.28","{""undefined"":""1400""}","","","","","","","","","","","","","imgNWTK/KeepItSecret.jpg"
"3528.1999999284744","","","survey-number","95","1784793","0.0-17.0","non-binary","18","Australia","38674","24660","neither","neither","imgNWTK/KeepItSecret.jpg","imgNWTK/FindOutNow.jpg","info","eq","3.28","{""undefined"":""1600""}","","","","","","","","","","","","","imgNWTK/FindOutNow.jpg"
"12931","<p style=""text-align:left;"">Great! We are almost at the end of the study... (Please do not close the browser window yet.)</p><p> Your final points balance is 3278, which equals to a bonus payment of $3.28. Please collect your payment from Mathews Building Room 721 (Wed-Fri 9am-5pm); please email jaimie.lee@unsw.edu.au at least 24 hours prior to collection so that this is ready for you.</p><p style=""text-align:left;"">To view the debriefing form, please click <a href=""./imgNWTK/debrief_3205.pdf"" target=""_blank"">here</a> to download a copy.</p><p style=""text-align:left;"">Then, <b>please click the below button</b> to confirm that you have received your debrief and to complete the study. Upon clicking ""Finish!"", your SONA credit will be automatically assigned.</p>","0","html-button-response","96","1797726","0.0-18.0","non-binary","18","Australia","38674","24660","neither","neither","imgNWTK/KeepItSecret.jpg","imgNWTK/FindOutNow.jpg","info","eq","3.28","","","","","","","","","","","","","",""
