"rt","stimulus","button_pressed","trial_type","trial_index","time_elapsed","internal_node_id","gender","age","language","PID","sona_id","subStim","optStim","stim1","stim2","infoCond","optimCond","bonus","responses","banditTrial","choice","cue","feedback","estimateData","leftOption","rightOption","choiceName","leftInput","rightInput","key_press","postQ","singleEst"
"10142","<p>Thank you for signing up to participate in SONA Study 465! <br> During this study, please focus on the experiment and refrain from activities such as:</p>- <b>Switching to other tabs on your browser (this will be monitored via the experiment)</br> - Using your mobile phone/cell phone</br> - Communicating with others</br></br></b><p>This way, you are helping to provide data that is useful for psychological research. We thank you for your cooperation!</p>","0","html-button-response","0","10146","0.0-0.0","male","18","Australia","62015","25194","imgNWTK/square.png","imgNWTK/triangle.png","imgNWTK/square.png","imgNWTK/triangle.png","noninfo","optim","3.31","","","","","","","","","","","","","",""
"1425","<p>Welcome to the experiment!</p><p>You will now read some instructions about the task. Press the 'Next' button to continue. </p>","0","html-button-response","1","11574","0.0-1.0","male","18","Australia","62015","25194","imgNWTK/square.png","imgNWTK/triangle.png","imgNWTK/square.png","imgNWTK/triangle.png","noninfo","optim","3.31","","","","","","","","","","","","","",""
"20099","<p> On each trial throughout the experiment you will choose between two options, </br>a <b>Black Square </b> and <b> Black Triangle </b>, as seen below.</p><div><div style= 'float: left; width: 300px; margin: 10px 10px;'><img src= 'imgNWTK/square.png'></img></div><div style= 'float: right; width: 300px; margin: 10px 10px;'><img src= 'imgNWTK/triangle.png'></img></div></div><br/><br/><br/><br/><br/><br/><br/><br/><br/><br/><br/><p>Each option results in winning points or receiving 0 points.</br>There is a 50% chance of either winning or receiving 0 points.</p><p>You won't receive the outcome until after a <b> 20 second delay</b>.</p>","0","html-button-response","2","31675","0.0-2.0-0.0","male","18","Australia","62015","25194","imgNWTK/square.png","imgNWTK/triangle.png","imgNWTK/square.png","imgNWTK/triangle.png","noninfo","optim","3.31","","","","","","","","","","","","","",""
"18356","<img src= 'imgNWTK/NonInfoDiagram.png'></img><p>As seen above, whether you choose the square or triangle, you will receive a coloured circle after the choice. </p> <p>This circle will be on screen for 20 seconds until you win points or receive 0 points.</p><p>The coloured circle depends on which option you chose. </br> In the above example, choosing a triangle leads to a green circle and choosing the square leads to a red circle.</p>Please note: the circles in your task will be different to the above colours.</br></br>","0","html-button-response","3","50033","0.0-2.0-1.0","male","18","Australia","62015","25194","imgNWTK/square.png","imgNWTK/triangle.png","imgNWTK/square.png","imgNWTK/triangle.png","noninfo","optim","3.31","","","","","","","","","","","","","",""
"8640","<img src= 'cues/winTrials_noInfo.png' width = '1200'></img><p>To reiterate, 50% of the outcomes of each option will be WIN TRIALS, and the other 50% will be NO-WIN TRIALS.","0","html-button-response","4","58674","0.0-2.0-2.0","male","18","Australia","62015","25194","imgNWTK/square.png","imgNWTK/triangle.png","imgNWTK/square.png","imgNWTK/triangle.png","noninfo","optim","3.31","","","","","","","","","","","","","",""
"11850","<p> There will be <b>four blocks</b> in the experiment.</br>You will be given a short 15 second break between each block.</p><p><b>The points and the options will remain the same between the blocks.</b></p>The blocks are there just to give you a small break.</br></br></br></br><p>The points you earn in the task are also equal to <b> actual money</b>.</br> <b>1000 points is equal to $1 AUD</b></p><p>This is the rate you will be paid at the experiment's end.","0","html-button-response","5","70527","0.0-2.0-3.0","male","18","Australia","62015","25194","imgNWTK/square.png","imgNWTK/triangle.png","imgNWTK/square.png","imgNWTK/triangle.png","noninfo","optim","3.31","","","","","","","","","","","","","",""
"9107","","","survey-multi-choice","6","79640","0.0-2.0-4.0","male","18","Australia","62015","25194","imgNWTK/square.png","imgNWTK/triangle.png","imgNWTK/square.png","imgNWTK/triangle.png","noninfo","optim","3.31","{""Q0"":""20 Seconds"",""Q1"":""True"",""Q2"":""Equally""}","","","","","","","","","","","","",""
"751","<p> Well done, all your answers were correct! <br> The experiment is about to start now. <br/> Click start to continue, or email your researcher <b>(amy.x.li@unsw.edu.au)</b> if you have any questions before starting.","0","html-button-response","7","80395","0.0-3.0","male","18","Australia","62015","25194","imgNWTK/square.png","imgNWTK/triangle.png","imgNWTK/square.png","imgNWTK/triangle.png","noninfo","optim","3.31","","","","","","","","","","","","","",""
"1622","","","bandit-task-exp6","8","85463","0.0-4.0-0.0","male","18","Australia","62015","25194","imgNWTK/square.png","imgNWTK/triangle.png","imgNWTK/square.png","imgNWTK/triangle.png","noninfo","optim","3.31","","1","1","1","74","null","imgNWTK/square.png","imgNWTK/triangle.png","imgNWTK/square.png","NaN","NaN","","",""
"666","","","bandit-task-exp6","9","90203","0.0-4.0-0.1","male","18","Australia","62015","25194","imgNWTK/square.png","imgNWTK/triangle.png","imgNWTK/square.png","imgNWTK/triangle.png","noninfo","optim","3.31","","2","1","1","89","null","imgNWTK/square.png","imgNWTK/triangle.png","imgNWTK/square.png","NaN","NaN","","",""
"435","","","bandit-task-exp6","10","93573","0.0-4.0-0.2","male","18","Australia","62015","25194","imgNWTK/square.png","imgNWTK/triangle.png","imgNWTK/square.png","imgNWTK/triangle.png","noninfo","optim","3.31","","3","2","2","111","null","imgNWTK/square.png","imgNWTK/triangle.png","imgNWTK/triangle.png","NaN","NaN","","",""
"449","","","bandit-task-exp6","11","96746","0.0-4.0-0.3","male","18","Australia","62015","25194","imgNWTK/square.png","imgNWTK/triangle.png","imgNWTK/square.png","imgNWTK/triangle.png","noninfo","optim","3.31","","4","2","1","0","null","imgNWTK/square.png","imgNWTK/triangle.png","imgNWTK/triangle.png","NaN","NaN","","",""
"388","","","bandit-task-exp6","12","99625","0.0-4.0-0.4","male","18","Australia","62015","25194","imgNWTK/square.png","imgNWTK/triangle.png","imgNWTK/square.png","imgNWTK/triangle.png","noninfo","optim","3.31","","5","1","1","81","null","imgNWTK/square.png","imgNWTK/triangle.png","imgNWTK/square.png","NaN","NaN","","",""
"357","","","bandit-task-exp6","13","102344","0.0-4.0-0.5","male","18","Australia","62015","25194","imgNWTK/square.png","imgNWTK/triangle.png","imgNWTK/square.png","imgNWTK/triangle.png","noninfo","optim","3.31","","6","1","1","90","null","imgNWTK/square.png","imgNWTK/triangle.png","imgNWTK/square.png","NaN","NaN","","",""
"320","","","bandit-task-exp6","14","105001","0.0-4.0-0.6","male","18","Australia","62015","25194","imgNWTK/square.png","imgNWTK/triangle.png","imgNWTK/square.png","imgNWTK/triangle.png","noninfo","optim","3.31","","7","2","2","123","null","imgNWTK/square.png","imgNWTK/triangle.png","imgNWTK/triangle.png","NaN","NaN","","",""
"372","","","bandit-task-exp6","15","107971","0.0-4.0-0.7","male","18","Australia","62015","25194","imgNWTK/square.png","imgNWTK/triangle.png","imgNWTK/square.png","imgNWTK/triangle.png","noninfo","optim","3.31","","8","1","1","85","null","imgNWTK/triangle.png","imgNWTK/square.png","imgNWTK/square.png","NaN","NaN","","",""
"388","","","bandit-task-exp6","16","110674","0.0-4.0-0.8","male","18","Australia","62015","25194","imgNWTK/square.png","imgNWTK/triangle.png","imgNWTK/square.png","imgNWTK/triangle.png","noninfo","optim","3.31","","9","1","1","72","null","imgNWTK/triangle.png","imgNWTK/square.png","imgNWTK/square.png","NaN","NaN","","",""
"425","","","bandit-task-exp6","17","113204","0.0-4.0-0.9","male","18","Australia","62015","25194","imgNWTK/square.png","imgNWTK/triangle.png","imgNWTK/square.png","imgNWTK/triangle.png","noninfo","optim","3.31","","10","1","1","80","null","imgNWTK/square.png","imgNWTK/triangle.png","imgNWTK/square.png","NaN","NaN","","",""
"583","","","bandit-task-exp6","18","116104","0.0-4.0-0.10","male","18","Australia","62015","25194","imgNWTK/square.png","imgNWTK/triangle.png","imgNWTK/square.png","imgNWTK/triangle.png","noninfo","optim","3.31","","11","2","1","0","null","imgNWTK/square.png","imgNWTK/triangle.png","imgNWTK/triangle.png","NaN","NaN","","",""
"471","","","bandit-task-exp6","19","119020","0.0-4.0-0.11","male","18","Australia","62015","25194","imgNWTK/square.png","imgNWTK/triangle.png","imgNWTK/square.png","imgNWTK/triangle.png","noninfo","optim","3.31","","12","2","2","115","null","imgNWTK/square.png","imgNWTK/triangle.png","imgNWTK/triangle.png","NaN","NaN","","",""
"312","","","bandit-task-exp6","20","121707","0.0-4.0-0.12","male","18","Australia","62015","25194","imgNWTK/square.png","imgNWTK/triangle.png","imgNWTK/square.png","imgNWTK/triangle.png","noninfo","optim","3.31","","13","1","2","0","null","imgNWTK/triangle.png","imgNWTK/square.png","imgNWTK/square.png","NaN","NaN","","",""
"1040","","","bandit-task-exp6","21","125510","0.0-4.0-0.13","male","18","Australia","62015","25194","imgNWTK/square.png","imgNWTK/triangle.png","imgNWTK/square.png","imgNWTK/triangle.png","noninfo","optim","3.31","","14","2","2","124","null","imgNWTK/square.png","imgNWTK/triangle.png","imgNWTK/triangle.png","NaN","NaN","","",""
"6568","","","bandit-task-exp6","22","134726","0.0-4.0-0.14","male","18","Australia","62015","25194","imgNWTK/square.png","imgNWTK/triangle.png","imgNWTK/square.png","imgNWTK/triangle.png","noninfo","optim","3.31","","15","1","2","0","null","imgNWTK/square.png","imgNWTK/triangle.png","imgNWTK/square.png","NaN","NaN","","",""
"null","<p><b> Congratulations, you have finished this block. </b> </p><p>Please take a short break before moving onto the next block.</p><p>The next block will start after a 15 second break.</p><b>Remember, the point rewards are the same between blocks","","html-keyboard-response","23","149736","0.0-5.0","male","18","Australia","62015","25194","imgNWTK/square.png","imgNWTK/triangle.png","imgNWTK/square.png","imgNWTK/triangle.png","noninfo","optim","3.31","","","","","","","","","","","","null","",""
"12282","","","bandit-task-exp6","24","164923","0.0-6.0-0.0","male","18","Australia","62015","25194","imgNWTK/square.png","imgNWTK/triangle.png","imgNWTK/square.png","imgNWTK/triangle.png","noninfo","optim","3.31","","16","2","2","118","null","imgNWTK/square.png","imgNWTK/triangle.png","imgNWTK/triangle.png","NaN","NaN","","",""
"661","","","bandit-task-exp6","25","167688","0.0-6.0-0.1","male","18","Australia","62015","25194","imgNWTK/square.png","imgNWTK/triangle.png","imgNWTK/square.png","imgNWTK/triangle.png","noninfo","optim","3.31","","17","2","2","123","null","imgNWTK/triangle.png","imgNWTK/square.png","imgNWTK/triangle.png","NaN","NaN","","",""
"569","","","bandit-task-exp6","26","170604","0.0-6.0-0.2","male","18","Australia","62015","25194","imgNWTK/square.png","imgNWTK/triangle.png","imgNWTK/square.png","imgNWTK/triangle.png","noninfo","optim","3.31","","18","1","2","0","null","imgNWTK/triangle.png","imgNWTK/square.png","imgNWTK/square.png","NaN","NaN","","",""
"465","","","bandit-task-exp6","27","173672","0.0-6.0-0.3","male","18","Australia","62015","25194","imgNWTK/square.png","imgNWTK/triangle.png","imgNWTK/square.png","imgNWTK/triangle.png","noninfo","optim","3.31","","19","2","2","121","null","imgNWTK/triangle.png","imgNWTK/square.png","imgNWTK/triangle.png","NaN","NaN","","",""
"706","","","bandit-task-exp6","28","177156","0.0-6.0-0.4","male","18","Australia","62015","25194","imgNWTK/square.png","imgNWTK/triangle.png","imgNWTK/square.png","imgNWTK/triangle.png","noninfo","optim","3.31","","20","2","2","113","null","imgNWTK/triangle.png","imgNWTK/square.png","imgNWTK/triangle.png","NaN","NaN","","",""
"373","","","bandit-task-exp6","29","180594","0.0-6.0-0.5","male","18","Australia","62015","25194","imgNWTK/square.png","imgNWTK/triangle.png","imgNWTK/square.png","imgNWTK/triangle.png","noninfo","optim","3.31","","21","1","2","0","null","imgNWTK/triangle.png","imgNWTK/square.png","imgNWTK/square.png","NaN","NaN","","",""
"382","","","bandit-task-exp6","30","183556","0.0-6.0-0.6","male","18","Australia","62015","25194","imgNWTK/square.png","imgNWTK/triangle.png","imgNWTK/square.png","imgNWTK/triangle.png","noninfo","optim","3.31","","22","2","1","0","null","imgNWTK/square.png","imgNWTK/triangle.png","imgNWTK/triangle.png","NaN","NaN","","",""
"480","","","bandit-task-exp6","31","186767","0.0-6.0-0.7","male","18","Australia","62015","25194","imgNWTK/square.png","imgNWTK/triangle.png","imgNWTK/square.png","imgNWTK/triangle.png","noninfo","optim","3.31","","23","1","2","0","null","imgNWTK/square.png","imgNWTK/triangle.png","imgNWTK/square.png","NaN","NaN","","",""
"676","","","bandit-task-exp6","32","190145","0.0-6.0-0.8","male","18","Australia","62015","25194","imgNWTK/square.png","imgNWTK/triangle.png","imgNWTK/square.png","imgNWTK/triangle.png","noninfo","optim","3.31","","24","1","2","0","null","imgNWTK/triangle.png","imgNWTK/square.png","imgNWTK/square.png","NaN","NaN","","",""
"615","","","bandit-task-exp6","33","193447","0.0-6.0-0.9","male","18","Australia","62015","25194","imgNWTK/square.png","imgNWTK/triangle.png","imgNWTK/square.png","imgNWTK/triangle.png","noninfo","optim","3.31","","25","2","2","127","null","imgNWTK/triangle.png","imgNWTK/square.png","imgNWTK/triangle.png","NaN","NaN","","",""
"570","","","bandit-task-exp6","34","196257","0.0-6.0-0.10","male","18","Australia","62015","25194","imgNWTK/square.png","imgNWTK/triangle.png","imgNWTK/square.png","imgNWTK/triangle.png","noninfo","optim","3.31","","26","2","2","128","null","imgNWTK/square.png","imgNWTK/triangle.png","imgNWTK/triangle.png","NaN","NaN","","",""
"1093","","","bandit-task-exp6","35","199808","0.0-6.0-0.11","male","18","Australia","62015","25194","imgNWTK/square.png","imgNWTK/triangle.png","imgNWTK/square.png","imgNWTK/triangle.png","noninfo","optim","3.31","","27","2","2","122","null","imgNWTK/triangle.png","imgNWTK/square.png","imgNWTK/triangle.png","NaN","NaN","","",""
"449","","","bandit-task-exp6","36","202921","0.0-6.0-0.12","male","18","Australia","62015","25194","imgNWTK/square.png","imgNWTK/triangle.png","imgNWTK/square.png","imgNWTK/triangle.png","noninfo","optim","3.31","","28","2","1","0","null","imgNWTK/triangle.png","imgNWTK/square.png","imgNWTK/triangle.png","NaN","NaN","","",""
"290","","","bandit-task-exp6","37","205489","0.0-6.0-0.13","male","18","Australia","62015","25194","imgNWTK/square.png","imgNWTK/triangle.png","imgNWTK/square.png","imgNWTK/triangle.png","noninfo","optim","3.31","","29","1","2","0","null","imgNWTK/triangle.png","imgNWTK/square.png","imgNWTK/square.png","NaN","NaN","","",""
"554","","","bandit-task-exp6","38","208413","0.0-6.0-0.14","male","18","Australia","62015","25194","imgNWTK/square.png","imgNWTK/triangle.png","imgNWTK/square.png","imgNWTK/triangle.png","noninfo","optim","3.31","","30","2","1","0","null","imgNWTK/triangle.png","imgNWTK/square.png","imgNWTK/triangle.png","NaN","NaN","","",""
"null","<p><b> Congratulations, you have finished this block. </b> </p><p>Please take a short break before moving onto the next block.</p><p>The next block will start after a 15 second break.</p><b>Remember, the point rewards are the same between blocks","","html-keyboard-response","39","223420","0.0-7.0","male","18","Australia","62015","25194","imgNWTK/square.png","imgNWTK/triangle.png","imgNWTK/square.png","imgNWTK/triangle.png","noninfo","optim","3.31","","","","","","","","","","","","null","",""
"1676","","","bandit-task-exp6","40","228578","0.0-8.0-0.0","male","18","Australia","62015","25194","imgNWTK/square.png","imgNWTK/triangle.png","imgNWTK/square.png","imgNWTK/triangle.png","noninfo","optim","3.31","","31","1","2","0","null","imgNWTK/square.png","imgNWTK/triangle.png","imgNWTK/square.png","NaN","NaN","","",""
"455","","","bandit-task-exp6","41","231576","0.0-8.0-0.1","male","18","Australia","62015","25194","imgNWTK/square.png","imgNWTK/triangle.png","imgNWTK/square.png","imgNWTK/triangle.png","noninfo","optim","3.31","","32","2","1","0","null","imgNWTK/square.png","imgNWTK/triangle.png","imgNWTK/triangle.png","NaN","NaN","","",""
"343","","","bandit-task-exp6","42","234114","0.0-8.0-0.2","male","18","Australia","62015","25194","imgNWTK/square.png","imgNWTK/triangle.png","imgNWTK/square.png","imgNWTK/triangle.png","noninfo","optim","3.31","","33","1","1","70","null","imgNWTK/square.png","imgNWTK/triangle.png","imgNWTK/square.png","NaN","NaN","","",""
"411","","","bandit-task-exp6","43","236825","0.0-8.0-0.3","male","18","Australia","62015","25194","imgNWTK/square.png","imgNWTK/triangle.png","imgNWTK/square.png","imgNWTK/triangle.png","noninfo","optim","3.31","","34","1","2","0","null","imgNWTK/square.png","imgNWTK/triangle.png","imgNWTK/square.png","NaN","NaN","","",""
"381","","","bandit-task-exp6","44","239559","0.0-8.0-0.4","male","18","Australia","62015","25194","imgNWTK/square.png","imgNWTK/triangle.png","imgNWTK/square.png","imgNWTK/triangle.png","noninfo","optim","3.31","","35","2","1","0","null","imgNWTK/triangle.png","imgNWTK/square.png","imgNWTK/triangle.png","NaN","NaN","","",""
"593","","","bandit-task-exp6","45","242293","0.0-8.0-0.5","male","18","Australia","62015","25194","imgNWTK/square.png","imgNWTK/triangle.png","imgNWTK/square.png","imgNWTK/triangle.png","noninfo","optim","3.31","","36","1","1","78","null","imgNWTK/triangle.png","imgNWTK/square.png","imgNWTK/square.png","NaN","NaN","","",""
"518","","","bandit-task-exp6","46","245141","0.0-8.0-0.6","male","18","Australia","62015","25194","imgNWTK/square.png","imgNWTK/triangle.png","imgNWTK/square.png","imgNWTK/triangle.png","noninfo","optim","3.31","","37","1","2","0","null","imgNWTK/triangle.png","imgNWTK/square.png","imgNWTK/square.png","NaN","NaN","","",""
"396","","","bandit-task-exp6","47","247822","0.0-8.0-0.7","male","18","Australia","62015","25194","imgNWTK/square.png","imgNWTK/triangle.png","imgNWTK/square.png","imgNWTK/triangle.png","noninfo","optim","3.31","","38","2","1","0","null","imgNWTK/triangle.png","imgNWTK/square.png","imgNWTK/triangle.png","NaN","NaN","","",""
"448","","","bandit-task-exp6","48","250578","0.0-8.0-0.8","male","18","Australia","62015","25194","imgNWTK/square.png","imgNWTK/triangle.png","imgNWTK/square.png","imgNWTK/triangle.png","noninfo","optim","3.31","","39","2","1","0","null","imgNWTK/square.png","imgNWTK/triangle.png","imgNWTK/triangle.png","NaN","NaN","","",""
"707","","","bandit-task-exp6","49","253509","0.0-8.0-0.9","male","18","Australia","62015","25194","imgNWTK/square.png","imgNWTK/triangle.png","imgNWTK/square.png","imgNWTK/triangle.png","noninfo","optim","3.31","","40","2","2","127","null","imgNWTK/square.png","imgNWTK/triangle.png","imgNWTK/triangle.png","NaN","NaN","","",""
"410","","","bandit-task-exp6","50","256228","0.0-8.0-0.10","male","18","Australia","62015","25194","imgNWTK/square.png","imgNWTK/triangle.png","imgNWTK/square.png","imgNWTK/triangle.png","noninfo","optim","3.31","","41","1","2","0","null","imgNWTK/square.png","imgNWTK/triangle.png","imgNWTK/square.png","NaN","NaN","","",""
"269","","","bandit-task-exp6","51","258568","0.0-8.0-0.11","male","18","Australia","62015","25194","imgNWTK/square.png","imgNWTK/triangle.png","imgNWTK/square.png","imgNWTK/triangle.png","noninfo","optim","3.31","","42","1","2","0","null","imgNWTK/triangle.png","imgNWTK/square.png","imgNWTK/square.png","NaN","NaN","","",""
"472","","","bandit-task-exp6","52","261741","0.0-8.0-0.12","male","18","Australia","62015","25194","imgNWTK/square.png","imgNWTK/triangle.png","imgNWTK/square.png","imgNWTK/triangle.png","noninfo","optim","3.31","","43","2","2","116","null","imgNWTK/triangle.png","imgNWTK/square.png","imgNWTK/triangle.png","NaN","NaN","","",""
"344","","","bandit-task-exp6","53","264490","0.0-8.0-0.13","male","18","Australia","62015","25194","imgNWTK/square.png","imgNWTK/triangle.png","imgNWTK/square.png","imgNWTK/triangle.png","noninfo","optim","3.31","","44","2","2","114","null","imgNWTK/square.png","imgNWTK/triangle.png","imgNWTK/triangle.png","NaN","NaN","","",""
"510","","","bandit-task-exp6","54","267443","0.0-8.0-0.14","male","18","Australia","62015","25194","imgNWTK/square.png","imgNWTK/triangle.png","imgNWTK/square.png","imgNWTK/triangle.png","noninfo","optim","3.31","","45","1","2","0","null","imgNWTK/square.png","imgNWTK/triangle.png","imgNWTK/square.png","NaN","NaN","","",""
"null","<p><b> Congratulations, you have finished this block. </b> </p><p>Please take a short break before moving onto the next block.</p><p>The next block will start after a 15 second break.</p><b>Remember, the point rewards are the same between blocks","","html-keyboard-response","55","282456","0.0-9.0","male","18","Australia","62015","25194","imgNWTK/square.png","imgNWTK/triangle.png","imgNWTK/square.png","imgNWTK/triangle.png","noninfo","optim","3.31","","","","","","","","","","","","null","",""
"47497","","","bandit-task-exp6","56","332685","0.0-10.0-0.0","male","18","Australia","62015","25194","imgNWTK/square.png","imgNWTK/triangle.png","imgNWTK/square.png","imgNWTK/triangle.png","noninfo","optim","3.31","","46","2","1","0","null","imgNWTK/square.png","imgNWTK/triangle.png","imgNWTK/triangle.png","89","121","","",""
"11897","","","bandit-task-exp6","57","347271","0.0-10.0-0.1","male","18","Australia","62015","25194","imgNWTK/square.png","imgNWTK/triangle.png","imgNWTK/square.png","imgNWTK/triangle.png","noninfo","optim","3.31","","47","1","2","0","null","imgNWTK/triangle.png","imgNWTK/square.png","imgNWTK/square.png","121","89","","",""
"3377","","","bandit-task-exp6","58","353261","0.0-10.0-0.2","male","18","Australia","62015","25194","imgNWTK/square.png","imgNWTK/triangle.png","imgNWTK/square.png","imgNWTK/triangle.png","noninfo","optim","3.31","","48","1","2","0","null","imgNWTK/square.png","imgNWTK/triangle.png","imgNWTK/square.png","89","121","","",""
"4726","","","bandit-task-exp6","59","360659","0.0-10.0-0.3","male","18","Australia","62015","25194","imgNWTK/square.png","imgNWTK/triangle.png","imgNWTK/square.png","imgNWTK/triangle.png","noninfo","optim","3.31","","49","2","1","0","null","imgNWTK/square.png","imgNWTK/triangle.png","imgNWTK/triangle.png","121","89","","",""
"30658","","","bandit-task-exp6","60","394991","0.0-10.0-0.4","male","18","Australia","62015","25194","imgNWTK/square.png","imgNWTK/triangle.png","imgNWTK/square.png","imgNWTK/triangle.png","noninfo","optim","3.31","","50","1","1","73","null","imgNWTK/square.png","imgNWTK/triangle.png","imgNWTK/square.png","89","82","","",""
"5779","","","bandit-task-exp6","61","403670","0.0-10.0-0.5","male","18","Australia","62015","25194","imgNWTK/square.png","imgNWTK/triangle.png","imgNWTK/square.png","imgNWTK/triangle.png","noninfo","optim","3.31","","51","2","1","0","null","imgNWTK/triangle.png","imgNWTK/square.png","imgNWTK/triangle.png","82","71","","",""
"9640","","","bandit-task-exp6","62","416106","0.0-10.0-0.6","male","18","Australia","62015","25194","imgNWTK/square.png","imgNWTK/triangle.png","imgNWTK/square.png","imgNWTK/triangle.png","noninfo","optim","3.31","","52","1","1","87","null","imgNWTK/triangle.png","imgNWTK/square.png","imgNWTK/square.png","82","71","","",""
"5508","","","bandit-task-exp6","63","424240","0.0-10.0-0.7","male","18","Australia","62015","25194","imgNWTK/square.png","imgNWTK/triangle.png","imgNWTK/square.png","imgNWTK/triangle.png","noninfo","optim","3.31","","53","1","1","85","null","imgNWTK/square.png","imgNWTK/triangle.png","imgNWTK/square.png","89","82","","",""
"5234","","","bandit-task-exp6","64","432094","0.0-10.0-0.8","male","18","Australia","62015","25194","imgNWTK/square.png","imgNWTK/triangle.png","imgNWTK/square.png","imgNWTK/triangle.png","noninfo","optim","3.31","","54","2","2","111","null","imgNWTK/square.png","imgNWTK/triangle.png","imgNWTK/triangle.png","89","82","","",""
"5734","","","bandit-task-exp6","65","440455","0.0-10.0-0.9","male","18","Australia","62015","25194","imgNWTK/square.png","imgNWTK/triangle.png","imgNWTK/square.png","imgNWTK/triangle.png","noninfo","optim","3.31","","55","2","2","113","null","imgNWTK/triangle.png","imgNWTK/square.png","imgNWTK/triangle.png","104","89","","",""
"6696","","","bandit-task-exp6","66","449816","0.0-10.0-0.10","male","18","Australia","62015","25194","imgNWTK/square.png","imgNWTK/triangle.png","imgNWTK/square.png","imgNWTK/triangle.png","noninfo","optim","3.31","","56","2","2","111","null","imgNWTK/square.png","imgNWTK/triangle.png","imgNWTK/triangle.png","82","110","","",""
"5960","","","bandit-task-exp6","67","458411","0.0-10.0-0.11","male","18","Australia","62015","25194","imgNWTK/square.png","imgNWTK/triangle.png","imgNWTK/square.png","imgNWTK/triangle.png","noninfo","optim","3.31","","57","1","1","78","null","imgNWTK/square.png","imgNWTK/triangle.png","imgNWTK/square.png","81","111","","",""
"4672","","","bandit-task-exp6","68","466060","0.0-10.0-0.12","male","18","Australia","62015","25194","imgNWTK/square.png","imgNWTK/triangle.png","imgNWTK/square.png","imgNWTK/triangle.png","noninfo","optim","3.31","","58","2","2","130","null","imgNWTK/triangle.png","imgNWTK/square.png","imgNWTK/triangle.png","111","78","","",""
"7133","","","bandit-task-exp6","69","475807","0.0-10.0-0.13","male","18","Australia","62015","25194","imgNWTK/square.png","imgNWTK/triangle.png","imgNWTK/square.png","imgNWTK/triangle.png","noninfo","optim","3.31","","59","2","2","118","null","imgNWTK/square.png","imgNWTK/triangle.png","imgNWTK/triangle.png","71","120","","",""
"4824","","","bandit-task-exp6","70","483281","0.0-10.0-0.14","male","18","Australia","62015","25194","imgNWTK/square.png","imgNWTK/triangle.png","imgNWTK/square.png","imgNWTK/triangle.png","noninfo","optim","3.31","","60","2","1","0","null","imgNWTK/square.png","imgNWTK/triangle.png","imgNWTK/triangle.png","81","120","","",""
"2298","<p> Congratulations, you have finished the main part of the experiment. </p><p>Before you finish, we have a few short questions about the options and outcomes you saw in the task.</p>","0","html-button-response","71","485582","0.0-11.0","male","18","Australia","62015","25194","imgNWTK/square.png","imgNWTK/triangle.png","imgNWTK/square.png","imgNWTK/triangle.png","noninfo","optim","3.31","","","","","","","","","","","","","",""
"5396","<p><b>Now, imagine that you clicked on the below button for another 10 trials (this includes <i> BOTH WIN and NO-WIN trials</i>).</p> <img src= 'imgNWTK/triangle.png'></img></br></br> <p><b>Please type the reward (number of points) you would expect to receive on every trial.</br> Click start to begin.</p>","0","html-button-response","72","490980","0.0-12.0","male","18","Australia","62015","25194","imgNWTK/square.png","imgNWTK/triangle.png","imgNWTK/square.png","imgNWTK/triangle.png","noninfo","optim","3.31","","","","","","","","","","","","","",""
"10528.200000017881","","","survey-number","73","501516","0.0-13.0-0.0","male","18","Australia","62015","25194","imgNWTK/square.png","imgNWTK/triangle.png","imgNWTK/square.png","imgNWTK/triangle.png","noninfo","optim","3.31","{""undefined"":""0""}","","","","","","","","","","","","imgNWTK/triangle.png",""
"2772.5","","","survey-number","74","504294","0.0-13.0-0.1","male","18","Australia","62015","25194","imgNWTK/square.png","imgNWTK/triangle.png","imgNWTK/square.png","imgNWTK/triangle.png","noninfo","optim","3.31","{""undefined"":""121""}","","","","","","","","","","","","imgNWTK/triangle.png",""
"1525.699999988079","","","survey-number","75","505825","0.0-13.0-0.2","male","18","Australia","62015","25194","imgNWTK/square.png","imgNWTK/triangle.png","imgNWTK/square.png","imgNWTK/triangle.png","noninfo","optim","3.31","{""undefined"":""111""}","","","","","","","","","","","","imgNWTK/triangle.png",""
"1502.199999988079","","","survey-number","76","507332","0.0-13.0-0.3","male","18","Australia","62015","25194","imgNWTK/square.png","imgNWTK/triangle.png","imgNWTK/square.png","imgNWTK/triangle.png","noninfo","optim","3.31","{""undefined"":""113""}","","","","","","","","","","","","imgNWTK/triangle.png",""
"851.5","","","survey-number","77","508188","0.0-13.0-0.4","male","18","Australia","62015","25194","imgNWTK/square.png","imgNWTK/triangle.png","imgNWTK/square.png","imgNWTK/triangle.png","noninfo","optim","3.31","{""undefined"":""0""}","","","","","","","","","","","","imgNWTK/triangle.png",""
"381.90000000596046","","","survey-number","78","508574","0.0-13.0-0.5","male","18","Australia","62015","25194","imgNWTK/square.png","imgNWTK/triangle.png","imgNWTK/square.png","imgNWTK/triangle.png","noninfo","optim","3.31","{""undefined"":""0""}","","","","","","","","","","","","imgNWTK/triangle.png",""
"366.69999998807907","","","survey-number","79","508945","0.0-13.0-0.6","male","18","Australia","62015","25194","imgNWTK/square.png","imgNWTK/triangle.png","imgNWTK/square.png","imgNWTK/triangle.png","noninfo","optim","3.31","{""undefined"":""0""}","","","","","","","","","","","","imgNWTK/triangle.png",""
"897.5","","","survey-number","80","509846","0.0-13.0-0.7","male","18","Australia","62015","25194","imgNWTK/square.png","imgNWTK/triangle.png","imgNWTK/square.png","imgNWTK/triangle.png","noninfo","optim","3.31","{""undefined"":""0""}","","","","","","","","","","","","imgNWTK/triangle.png",""
"3214.800000011921","","","survey-number","81","513066","0.0-13.0-0.8","male","18","Australia","62015","25194","imgNWTK/square.png","imgNWTK/triangle.png","imgNWTK/square.png","imgNWTK/triangle.png","noninfo","optim","3.31","{""undefined"":""130""}","","","","","","","","","","","","imgNWTK/triangle.png",""
"2539.5999999940395","","","survey-number","82","515610","0.0-13.0-0.9","male","18","Australia","62015","25194","imgNWTK/square.png","imgNWTK/triangle.png","imgNWTK/square.png","imgNWTK/triangle.png","noninfo","optim","3.31","{""undefined"":""125""}","","","","","","","","","","","","imgNWTK/triangle.png",""
"1155","<p><b>Imagine that you clicked on the below button for another 10 trials (this includes <i> both WIN and NO-WIN trials</i>).</p> <img src= 'imgNWTK/square.png'></img></br></br> <p><b>Please type the reward (number of points) you would expect to receive on every trial.</br> Click start to begin.</p>","0","html-button-response","83","516770","0.0-14.0","male","18","Australia","62015","25194","imgNWTK/square.png","imgNWTK/triangle.png","imgNWTK/square.png","imgNWTK/triangle.png","noninfo","optim","3.31","","","","","","","","","","","","","",""
"2167.9000000059605","","","survey-number","84","518942","0.0-15.0-0.0","male","18","Australia","62015","25194","imgNWTK/square.png","imgNWTK/triangle.png","imgNWTK/square.png","imgNWTK/triangle.png","noninfo","optim","3.31","{""undefined"":""0""}","","","","","","","","","","","","imgNWTK/square.png",""
"920.5","","","survey-number","85","519867","0.0-15.0-0.1","male","18","Australia","62015","25194","imgNWTK/square.png","imgNWTK/triangle.png","imgNWTK/square.png","imgNWTK/triangle.png","noninfo","optim","3.31","{""undefined"":""0""}","","","","","","","","","","","","imgNWTK/square.png",""
"382.19999998807907","","","survey-number","86","520253","0.0-15.0-0.2","male","18","Australia","62015","25194","imgNWTK/square.png","imgNWTK/triangle.png","imgNWTK/square.png","imgNWTK/triangle.png","noninfo","optim","3.31","{""undefined"":""0""}","","","","","","","","","","","","imgNWTK/square.png",""
"2813","","","survey-number","87","523071","0.0-15.0-0.3","male","18","Australia","62015","25194","imgNWTK/square.png","imgNWTK/triangle.png","imgNWTK/square.png","imgNWTK/triangle.png","noninfo","optim","3.31","{""undefined"":""71""}","","","","","","","","","","","","imgNWTK/square.png",""
"2282.5999999940395","","","survey-number","88","525357","0.0-15.0-0.4","male","18","Australia","62015","25194","imgNWTK/square.png","imgNWTK/triangle.png","imgNWTK/square.png","imgNWTK/triangle.png","noninfo","optim","3.31","{""undefined"":""83""}","","","","","","","","","","","","imgNWTK/square.png",""
"1112.2000000178814","","","survey-number","89","526474","0.0-15.0-0.5","male","18","Australia","62015","25194","imgNWTK/square.png","imgNWTK/triangle.png","imgNWTK/square.png","imgNWTK/triangle.png","noninfo","optim","3.31","{""undefined"":""0""}","","","","","","","","","","","","imgNWTK/square.png",""
"3796.2000000178814","","","survey-number","90","530277","0.0-15.0-0.6","male","18","Australia","62015","25194","imgNWTK/square.png","imgNWTK/triangle.png","imgNWTK/square.png","imgNWTK/triangle.png","noninfo","optim","3.31","{""undefined"":""82""}","","","","","","","","","","","","imgNWTK/square.png",""
"1271.5","","","survey-number","91","531555","0.0-15.0-0.7","male","18","Australia","62015","25194","imgNWTK/square.png","imgNWTK/triangle.png","imgNWTK/square.png","imgNWTK/triangle.png","noninfo","optim","3.31","{""undefined"":""89""}","","","","","","","","","","","","imgNWTK/square.png",""
"1703.2999999821186","","","survey-number","92","533264","0.0-15.0-0.8","male","18","Australia","62015","25194","imgNWTK/square.png","imgNWTK/triangle.png","imgNWTK/square.png","imgNWTK/triangle.png","noninfo","optim","3.31","{""undefined"":""74""}","","","","","","","","","","","","imgNWTK/square.png",""
"1342.199999988079","","","survey-number","93","534613","0.0-15.0-0.9","male","18","Australia","62015","25194","imgNWTK/square.png","imgNWTK/triangle.png","imgNWTK/square.png","imgNWTK/triangle.png","noninfo","optim","3.31","{""undefined"":""0""}","","","","","","","","","","","","imgNWTK/square.png",""
"27966.90000000596","","","survey-number","94","562592","0.0-16.0","male","18","Australia","62015","25194","imgNWTK/square.png","imgNWTK/triangle.png","imgNWTK/square.png","imgNWTK/triangle.png","noninfo","optim","3.31","{""undefined"":""113""}","","","","","","","","","","","","","imgNWTK/triangle.png"
"4238","","","survey-number","95","566835","0.0-17.0","male","18","Australia","62015","25194","imgNWTK/square.png","imgNWTK/triangle.png","imgNWTK/square.png","imgNWTK/triangle.png","noninfo","optim","3.31","{""undefined"":""72""}","","","","","","","","","","","","","imgNWTK/square.png"
"22021","<p style=""text-align:left;"">Great! We are almost at the end of the study... (Please do not close the browser window yet.)</p><p> Your final points balance is 3307, which equals to a bonus payment of $3.31. Please collect your payment from Mathews Building Room 721 (Mon-Fri 9am-5pm); please email amy.x.li@unsw.edu.au at least 24 hours prior to collection so that this is ready for you.</p><p style=""text-align:left;"">To view the debriefing form, please click <a href=""./imgNWTK/debrief_3205.pdf"" target=""_blank"">here</a> to download a copy.</p><p style=""text-align:left;"">Then, <b>please click the below button</b> to confirm that you have received your debrief and to complete the study. Upon clicking ""Finish!"", your SONA credit will be automatically assigned.</p>","0","html-button-response","96","588859","0.0-18.0","male","18","Australia","62015","25194","imgNWTK/square.png","imgNWTK/triangle.png","imgNWTK/square.png","imgNWTK/triangle.png","noninfo","optim","3.31","","","","","","","","","","","","","",""
