"rt","stimulus","button_pressed","trial_type","trial_index","time_elapsed","internal_node_id","gender","age","language","PID","sona_id","subStim","optStim","stim1","stim2","infoCond","optimCond","bonus","responses","banditTrial","choice","cue","feedback","estimateData","leftOption","rightOption","choiceName","leftInput","rightInput","key_press","postQ","singleEst"
"3178","<p>Thank you for signing up to participate in SONA Study 465! <br> During this study, please focus on the experiment and refrain from activities such as:</p>- <b>Switching to other tabs on your browser (this will be monitored via the experiment)</br> - Using your mobile phone/cell phone</br> - Communicating with others</br></br></b><p>This way, you are helping to provide data that is useful for psychological research. We thank you for your cooperation!</p>","0","html-button-response","0","3181","0.0-0.0","female","19","Australia","70452","24756","neither","neither","imgNWTK/square.png","imgNWTK/triangle.png","noninfo","eq","2.29","","","","","","","","","","","","","",""
"1141","<p>Welcome to the experiment!</p><p>You will now read some instructions about the task. Press the 'Next' button to continue. </p>","0","html-button-response","1","4324","0.0-1.0","female","19","Australia","70452","24756","neither","neither","imgNWTK/square.png","imgNWTK/triangle.png","noninfo","eq","2.29","","","","","","","","","","","","","",""
"21652","<p> On each trial throughout the experiment you will choose between two options, </br>a <b>Black Square </b> and <b> Black Triangle </b>, as seen below.</p><div><div style= 'float: left; width: 300px; margin: 10px 10px;'><img src= 'imgNWTK/square.png'></img></div><div style= 'float: right; width: 300px; margin: 10px 10px;'><img src= 'imgNWTK/triangle.png'></img></div></div><br/><br/><br/><br/><br/><br/><br/><br/><br/><br/><br/><p>Each option results in winning points or receiving 0 points.</br>There is a 50% chance of either winning or receiving 0 points.</p><p>You won't receive the outcome until after a <b> 20 second delay</b>.</p>","0","html-button-response","2","25978","0.0-2.0-0.0","female","19","Australia","70452","24756","neither","neither","imgNWTK/square.png","imgNWTK/triangle.png","noninfo","eq","2.29","","","","","","","","","","","","","",""
"18222","<img src= 'imgNWTK/NonInfoDiagram.png'></img><p>As seen above, whether you choose the square or triangle, you will receive a coloured circle after the choice. </p> <p>This circle will be on screen for 20 seconds until you win points or receive 0 points.</p><p>The coloured circle depends on which option you chose. </br> In the above example, choosing a triangle leads to a green circle and choosing the square leads to a red circle.</p>Please note: the circles in your task will be different to the above colours.</br></br>","0","html-button-response","3","44201","0.0-2.0-1.0","female","19","Australia","70452","24756","neither","neither","imgNWTK/square.png","imgNWTK/triangle.png","noninfo","eq","2.29","","","","","","","","","","","","","",""
"8576","<img src= 'cues/winTrials_noInfo.png' width = '1200'></img><p>To reiterate, 50% of the outcomes of each option will be WIN TRIALS, and the other 50% will be NO-WIN TRIALS.","0","html-button-response","4","52778","0.0-2.0-2.0","female","19","Australia","70452","24756","neither","neither","imgNWTK/square.png","imgNWTK/triangle.png","noninfo","eq","2.29","","","","","","","","","","","","","",""
"26818","<p> There will be <b>four blocks</b> in the experiment.</br>You will be given a short 15 second break between each block.</p><p><b>The points and the options will remain the same between the blocks.</b></p>The blocks are there just to give you a small break.</br></br></br></br><p>The points you earn in the task are also equal to <b> actual money</b>.</br> <b>1000 points is equal to $1 AUD</b></p><p>This is the rate you will be paid at the experiment's end.","0","html-button-response","5","79597","0.0-2.0-3.0","female","19","Australia","70452","24756","neither","neither","imgNWTK/square.png","imgNWTK/triangle.png","noninfo","eq","2.29","","","","","","","","","","","","","",""
"13640","","","survey-multi-choice","6","93247","0.0-2.0-4.0","female","19","Australia","70452","24756","neither","neither","imgNWTK/square.png","imgNWTK/triangle.png","noninfo","eq","2.29","{""Q0"":""20 Seconds"",""Q1"":""True"",""Q2"":""Differently""}","","","","","","","","","","","","",""
"1583","Unfortunately, at least one of your answers was incorrect.<p> ","0","html-button-response","7","94831","0.0-2.0-5.0-0.0","female","19","Australia","70452","24756","neither","neither","imgNWTK/square.png","imgNWTK/triangle.png","noninfo","eq","2.29","","","","","","","","","","","","","",""
"2946","<p> On each trial throughout the experiment you will choose between two options, </br>a <b>Black Square </b> and <b> Black Triangle </b>, as seen below.</p><div><div style= 'float: left; width: 300px; margin: 10px 10px;'><img src= 'imgNWTK/square.png'></img></div><div style= 'float: right; width: 300px; margin: 10px 10px;'><img src= 'imgNWTK/triangle.png'></img></div></div><br/><br/><br/><br/><br/><br/><br/><br/><br/><br/><br/><p>Each option results in winning points or receiving 0 points.</br>There is a 50% chance of either winning or receiving 0 points.</p><p>You won't receive the outcome until after a <b> 20 second delay</b>.</p>","0","html-button-response","8","97779","0.0-2.1-0.1","female","19","Australia","70452","24756","neither","neither","imgNWTK/square.png","imgNWTK/triangle.png","noninfo","eq","2.29","","","","","","","","","","","","","",""
"6239","<img src= 'imgNWTK/NonInfoDiagram.png'></img><p>As seen above, whether you choose the square or triangle, you will receive a coloured circle after the choice. </p> <p>This circle will be on screen for 20 seconds until you win points or receive 0 points.</p><p>The coloured circle depends on which option you chose. </br> In the above example, choosing a triangle leads to a green circle and choosing the square leads to a red circle.</p>Please note: the circles in your task will be different to the above colours.</br></br>","0","html-button-response","9","104020","0.0-2.1-1.1","female","19","Australia","70452","24756","neither","neither","imgNWTK/square.png","imgNWTK/triangle.png","noninfo","eq","2.29","","","","","","","","","","","","","",""
"5029","<img src= 'cues/winTrials_noInfo.png' width = '1200'></img><p>To reiterate, 50% of the outcomes of each option will be WIN TRIALS, and the other 50% will be NO-WIN TRIALS.","0","html-button-response","10","109051","0.0-2.1-2.1","female","19","Australia","70452","24756","neither","neither","imgNWTK/square.png","imgNWTK/triangle.png","noninfo","eq","2.29","","","","","","","","","","","","","",""
"1003","<p> There will be <b>four blocks</b> in the experiment.</br>You will be given a short 15 second break between each block.</p><p><b>The points and the options will remain the same between the blocks.</b></p>The blocks are there just to give you a small break.</br></br></br></br><p>The points you earn in the task are also equal to <b> actual money</b>.</br> <b>1000 points is equal to $1 AUD</b></p><p>This is the rate you will be paid at the experiment's end.","0","html-button-response","11","110056","0.0-2.1-3.1","female","19","Australia","70452","24756","neither","neither","imgNWTK/square.png","imgNWTK/triangle.png","noninfo","eq","2.29","","","","","","","","","","","","","",""
"9673","","","survey-multi-choice","12","119735","0.0-2.1-4.1","female","19","Australia","70452","24756","neither","neither","imgNWTK/square.png","imgNWTK/triangle.png","noninfo","eq","2.29","{""Q0"":""20 Seconds"",""Q1"":""True"",""Q2"":""Equally""}","","","","","","","","","","","","",""
"8324","<p> Well done, all your answers were correct! <br> The experiment is about to start now. <br/> Click start to continue, or email your researcher <b>(amy.x.li@unsw.edu.au)</b> if you have any questions before starting.","0","html-button-response","13","128061","0.0-3.0","female","19","Australia","70452","24756","neither","neither","imgNWTK/square.png","imgNWTK/triangle.png","noninfo","eq","2.29","","","","","","","","","","","","","",""
"3390","","","bandit-task-exp6","14","158147","0.0-4.0-0.0","female","19","Australia","70452","24756","neither","neither","imgNWTK/square.png","imgNWTK/triangle.png","noninfo","eq","2.29","","1","1","2","0","null","imgNWTK/square.png","imgNWTK/triangle.png","imgNWTK/square.png","NaN","NaN","","",""
"3353","","","bandit-task-exp6","15","183392","0.0-4.0-0.1","female","19","Australia","70452","24756","neither","neither","imgNWTK/square.png","imgNWTK/triangle.png","noninfo","eq","2.29","","2","2","2","99","null","imgNWTK/square.png","imgNWTK/triangle.png","imgNWTK/triangle.png","NaN","NaN","","",""
"830","","","bandit-task-exp6","16","214527","0.0-4.0-0.2","female","19","Australia","70452","24756","neither","neither","imgNWTK/square.png","imgNWTK/triangle.png","noninfo","eq","2.29","","3","2","1","0","null","imgNWTK/square.png","imgNWTK/triangle.png","imgNWTK/triangle.png","NaN","NaN","","",""
"2904","","","bandit-task-exp6","17","239238","0.0-4.0-0.3","female","19","Australia","70452","24756","neither","neither","imgNWTK/square.png","imgNWTK/triangle.png","noninfo","eq","2.29","","4","1","2","0","null","imgNWTK/square.png","imgNWTK/triangle.png","imgNWTK/square.png","NaN","NaN","","",""
"1608","","","bandit-task-exp6","18","262785","0.0-4.0-0.4","female","19","Australia","70452","24756","neither","neither","imgNWTK/square.png","imgNWTK/triangle.png","noninfo","eq","2.29","","5","2","1","0","null","imgNWTK/triangle.png","imgNWTK/square.png","imgNWTK/triangle.png","NaN","NaN","","",""
"2154","","","bandit-task-exp6","19","286999","0.0-4.0-0.5","female","19","Australia","70452","24756","neither","neither","imgNWTK/square.png","imgNWTK/triangle.png","noninfo","eq","2.29","","6","2","2","91","null","imgNWTK/square.png","imgNWTK/triangle.png","imgNWTK/triangle.png","NaN","NaN","","",""
"3004","","","bandit-task-exp6","20","311624","0.0-4.0-0.6","female","19","Australia","70452","24756","neither","neither","imgNWTK/square.png","imgNWTK/triangle.png","noninfo","eq","2.29","","7","2","1","0","null","imgNWTK/triangle.png","imgNWTK/square.png","imgNWTK/triangle.png","NaN","NaN","","",""
"1345","","","bandit-task-exp6","21","335832","0.0-4.0-0.7","female","19","Australia","70452","24756","neither","neither","imgNWTK/square.png","imgNWTK/triangle.png","noninfo","eq","2.29","","8","2","2","98","null","imgNWTK/square.png","imgNWTK/triangle.png","imgNWTK/triangle.png","NaN","NaN","","",""
"1107","","","bandit-task-exp6","22","359690","0.0-4.0-0.8","female","19","Australia","70452","24756","neither","neither","imgNWTK/square.png","imgNWTK/triangle.png","noninfo","eq","2.29","","9","2","1","0","null","imgNWTK/triangle.png","imgNWTK/square.png","imgNWTK/triangle.png","NaN","NaN","","",""
"1018","","","bandit-task-exp6","23","384346","0.0-4.0-0.9","female","19","Australia","70452","24756","neither","neither","imgNWTK/square.png","imgNWTK/triangle.png","noninfo","eq","2.29","","10","2","1","0","null","imgNWTK/square.png","imgNWTK/triangle.png","imgNWTK/triangle.png","NaN","NaN","","",""
"1329","","","bandit-task-exp6","24","407408","0.0-4.0-0.10","female","19","Australia","70452","24756","neither","neither","imgNWTK/square.png","imgNWTK/triangle.png","noninfo","eq","2.29","","11","1","2","0","null","imgNWTK/triangle.png","imgNWTK/square.png","imgNWTK/square.png","NaN","NaN","","",""
"871","","","bandit-task-exp6","25","433691","0.0-4.0-0.11","female","19","Australia","70452","24756","neither","neither","imgNWTK/square.png","imgNWTK/triangle.png","noninfo","eq","2.29","","12","2","2","94","null","imgNWTK/triangle.png","imgNWTK/square.png","imgNWTK/triangle.png","NaN","NaN","","",""
"979","","","bandit-task-exp6","26","459820","0.0-4.0-0.12","female","19","Australia","70452","24756","neither","neither","imgNWTK/square.png","imgNWTK/triangle.png","noninfo","eq","2.29","","13","2","1","0","null","imgNWTK/triangle.png","imgNWTK/square.png","imgNWTK/triangle.png","NaN","NaN","","",""
"569","","","bandit-task-exp6","27","482835","0.0-4.0-0.13","female","19","Australia","70452","24756","neither","neither","imgNWTK/square.png","imgNWTK/triangle.png","noninfo","eq","2.29","","14","2","2","93","null","imgNWTK/triangle.png","imgNWTK/square.png","imgNWTK/triangle.png","NaN","NaN","","",""
"619","","","bandit-task-exp6","28","505086","0.0-4.0-0.14","female","19","Australia","70452","24756","neither","neither","imgNWTK/square.png","imgNWTK/triangle.png","noninfo","eq","2.29","","15","2","1","0","null","imgNWTK/triangle.png","imgNWTK/square.png","imgNWTK/triangle.png","NaN","NaN","","",""
"null","<p><b> Congratulations, you have finished this block. </b> </p><p>Please take a short break before moving onto the next block.</p><p>The next block will start after a 15 second break.</p><b>Remember, the point rewards are the same between blocks","","html-keyboard-response","29","520088","0.0-5.0","female","19","Australia","70452","24756","neither","neither","imgNWTK/square.png","imgNWTK/triangle.png","noninfo","eq","2.29","","","","","","","","","","","","null","",""
"2093","","","bandit-task-exp6","30","544306","0.0-6.0-0.0","female","19","Australia","70452","24756","neither","neither","imgNWTK/square.png","imgNWTK/triangle.png","noninfo","eq","2.29","","16","2","2","105","null","imgNWTK/square.png","imgNWTK/triangle.png","imgNWTK/triangle.png","NaN","NaN","","",""
"724","","","bandit-task-exp6","31","567334","0.0-6.0-0.1","female","19","Australia","70452","24756","neither","neither","imgNWTK/square.png","imgNWTK/triangle.png","noninfo","eq","2.29","","17","2","1","0","null","imgNWTK/triangle.png","imgNWTK/square.png","imgNWTK/triangle.png","NaN","NaN","","",""
"4012","","","bandit-task-exp6","32","593204","0.0-6.0-0.2","female","19","Australia","70452","24756","neither","neither","imgNWTK/square.png","imgNWTK/triangle.png","noninfo","eq","2.29","","18","2","2","96","null","imgNWTK/square.png","imgNWTK/triangle.png","imgNWTK/triangle.png","NaN","NaN","","",""
"674","","","bandit-task-exp6","33","615371","0.0-6.0-0.3","female","19","Australia","70452","24756","neither","neither","imgNWTK/square.png","imgNWTK/triangle.png","noninfo","eq","2.29","","19","2","1","0","null","imgNWTK/square.png","imgNWTK/triangle.png","imgNWTK/triangle.png","NaN","NaN","","",""
"618","","","bandit-task-exp6","34","638595","0.0-6.0-0.4","female","19","Australia","70452","24756","neither","neither","imgNWTK/square.png","imgNWTK/triangle.png","noninfo","eq","2.29","","20","2","1","0","null","imgNWTK/square.png","imgNWTK/triangle.png","imgNWTK/triangle.png","NaN","NaN","","",""
"945","","","bandit-task-exp6","35","661421","0.0-6.0-0.5","female","19","Australia","70452","24756","neither","neither","imgNWTK/square.png","imgNWTK/triangle.png","noninfo","eq","2.29","","21","2","1","0","null","imgNWTK/triangle.png","imgNWTK/square.png","imgNWTK/triangle.png","NaN","NaN","","",""
"690","","","bandit-task-exp6","36","685009","0.0-6.0-0.6","female","19","Australia","70452","24756","neither","neither","imgNWTK/square.png","imgNWTK/triangle.png","noninfo","eq","2.29","","22","2","1","0","null","imgNWTK/triangle.png","imgNWTK/square.png","imgNWTK/triangle.png","NaN","NaN","","",""
"716","","","bandit-task-exp6","37","707743","0.0-6.0-0.7","female","19","Australia","70452","24756","neither","neither","imgNWTK/square.png","imgNWTK/triangle.png","noninfo","eq","2.29","","23","2","1","0","null","imgNWTK/square.png","imgNWTK/triangle.png","imgNWTK/triangle.png","NaN","NaN","","",""
"764","","","bandit-task-exp6","38","730745","0.0-6.0-0.8","female","19","Australia","70452","24756","neither","neither","imgNWTK/square.png","imgNWTK/triangle.png","noninfo","eq","2.29","","24","2","1","0","null","imgNWTK/triangle.png","imgNWTK/square.png","imgNWTK/triangle.png","NaN","NaN","","",""
"903","","","bandit-task-exp6","39","753497","0.0-6.0-0.9","female","19","Australia","70452","24756","neither","neither","imgNWTK/square.png","imgNWTK/triangle.png","noninfo","eq","2.29","","25","2","1","0","null","imgNWTK/triangle.png","imgNWTK/square.png","imgNWTK/triangle.png","NaN","NaN","","",""
"928","","","bandit-task-exp6","40","776289","0.0-6.0-0.10","female","19","Australia","70452","24756","neither","neither","imgNWTK/square.png","imgNWTK/triangle.png","noninfo","eq","2.29","","26","2","1","0","null","imgNWTK/triangle.png","imgNWTK/square.png","imgNWTK/triangle.png","NaN","NaN","","",""
"714","","","bandit-task-exp6","41","800780","0.0-6.0-0.11","female","19","Australia","70452","24756","neither","neither","imgNWTK/square.png","imgNWTK/triangle.png","noninfo","eq","2.29","","27","2","2","91","null","imgNWTK/square.png","imgNWTK/triangle.png","imgNWTK/triangle.png","NaN","NaN","","",""
"2178","","","bandit-task-exp6","42","824492","0.0-6.0-0.12","female","19","Australia","70452","24756","neither","neither","imgNWTK/square.png","imgNWTK/triangle.png","noninfo","eq","2.29","","28","2","2","109","null","imgNWTK/square.png","imgNWTK/triangle.png","imgNWTK/triangle.png","NaN","NaN","","",""
"626","","","bandit-task-exp6","43","846617","0.0-6.0-0.13","female","19","Australia","70452","24756","neither","neither","imgNWTK/square.png","imgNWTK/triangle.png","noninfo","eq","2.29","","29","2","1","0","null","imgNWTK/square.png","imgNWTK/triangle.png","imgNWTK/triangle.png","NaN","NaN","","",""
"886","","","bandit-task-exp6","44","869241","0.0-6.0-0.14","female","19","Australia","70452","24756","neither","neither","imgNWTK/square.png","imgNWTK/triangle.png","noninfo","eq","2.29","","30","2","1","0","null","imgNWTK/square.png","imgNWTK/triangle.png","imgNWTK/triangle.png","NaN","NaN","","",""
"null","<p><b> Congratulations, you have finished this block. </b> </p><p>Please take a short break before moving onto the next block.</p><p>The next block will start after a 15 second break.</p><b>Remember, the point rewards are the same between blocks","","html-keyboard-response","45","884244","0.0-7.0","female","19","Australia","70452","24756","neither","neither","imgNWTK/square.png","imgNWTK/triangle.png","noninfo","eq","2.29","","","","","","","","","","","","null","",""
"2132","","","bandit-task-exp6","46","907956","0.0-8.0-0.0","female","19","Australia","70452","24756","neither","neither","imgNWTK/square.png","imgNWTK/triangle.png","noninfo","eq","2.29","","31","2","1","0","null","imgNWTK/triangle.png","imgNWTK/square.png","imgNWTK/triangle.png","NaN","NaN","","",""
"1320","","","bandit-task-exp6","47","930899","0.0-8.0-0.1","female","19","Australia","70452","24756","neither","neither","imgNWTK/square.png","imgNWTK/triangle.png","noninfo","eq","2.29","","32","2","1","0","null","imgNWTK/triangle.png","imgNWTK/square.png","imgNWTK/triangle.png","NaN","NaN","","",""
"920","","","bandit-task-exp6","48","953854","0.0-8.0-0.2","female","19","Australia","70452","24756","neither","neither","imgNWTK/square.png","imgNWTK/triangle.png","noninfo","eq","2.29","","33","1","1","104","null","imgNWTK/square.png","imgNWTK/triangle.png","imgNWTK/square.png","NaN","NaN","","",""
"1394","","","bandit-task-exp6","49","977030","0.0-8.0-0.3","female","19","Australia","70452","24756","neither","neither","imgNWTK/square.png","imgNWTK/triangle.png","noninfo","eq","2.29","","34","2","2","96","null","imgNWTK/square.png","imgNWTK/triangle.png","imgNWTK/triangle.png","NaN","NaN","","",""
"2121","","","bandit-task-exp6","50","1000649","0.0-8.0-0.4","female","19","Australia","70452","24756","neither","neither","imgNWTK/square.png","imgNWTK/triangle.png","noninfo","eq","2.29","","35","2","1","0","null","imgNWTK/triangle.png","imgNWTK/square.png","imgNWTK/triangle.png","NaN","NaN","","",""
"854","","","bandit-task-exp6","51","1023857","0.0-8.0-0.5","female","19","Australia","70452","24756","neither","neither","imgNWTK/square.png","imgNWTK/triangle.png","noninfo","eq","2.29","","36","1","1","104","null","imgNWTK/triangle.png","imgNWTK/square.png","imgNWTK/square.png","NaN","NaN","","",""
"4129","","","bandit-task-exp6","52","1050070","0.0-8.0-0.6","female","19","Australia","70452","24756","neither","neither","imgNWTK/square.png","imgNWTK/triangle.png","noninfo","eq","2.29","","37","2","1","0","null","imgNWTK/triangle.png","imgNWTK/square.png","imgNWTK/triangle.png","NaN","NaN","","",""
"805","","","bandit-task-exp6","53","1072341","0.0-8.0-0.7","female","19","Australia","70452","24756","neither","neither","imgNWTK/square.png","imgNWTK/triangle.png","noninfo","eq","2.29","","38","2","2","95","null","imgNWTK/square.png","imgNWTK/triangle.png","imgNWTK/triangle.png","NaN","NaN","","",""
"642","","","bandit-task-exp6","54","1094576","0.0-8.0-0.8","female","19","Australia","70452","24756","neither","neither","imgNWTK/square.png","imgNWTK/triangle.png","noninfo","eq","2.29","","39","2","2","108","null","imgNWTK/square.png","imgNWTK/triangle.png","imgNWTK/triangle.png","NaN","NaN","","",""
"709","","","bandit-task-exp6","55","1116781","0.0-8.0-0.9","female","19","Australia","70452","24756","neither","neither","imgNWTK/square.png","imgNWTK/triangle.png","noninfo","eq","2.29","","40","2","2","97","null","imgNWTK/triangle.png","imgNWTK/square.png","imgNWTK/triangle.png","NaN","NaN","","",""
"1223","","","bandit-task-exp6","56","1140099","0.0-8.0-0.10","female","19","Australia","70452","24756","neither","neither","imgNWTK/square.png","imgNWTK/triangle.png","noninfo","eq","2.29","","41","2","2","105","null","imgNWTK/triangle.png","imgNWTK/square.png","imgNWTK/triangle.png","NaN","NaN","","",""
"585","","","bandit-task-exp6","57","1162256","0.0-8.0-0.11","female","19","Australia","70452","24756","neither","neither","imgNWTK/square.png","imgNWTK/triangle.png","noninfo","eq","2.29","","42","2","1","0","null","imgNWTK/square.png","imgNWTK/triangle.png","imgNWTK/triangle.png","NaN","NaN","","",""
"1034","","","bandit-task-exp6","58","1185485","0.0-8.0-0.12","female","19","Australia","70452","24756","neither","neither","imgNWTK/square.png","imgNWTK/triangle.png","noninfo","eq","2.29","","43","2","2","101","null","imgNWTK/square.png","imgNWTK/triangle.png","imgNWTK/triangle.png","NaN","NaN","","",""
"1068","","","bandit-task-exp6","59","1209152","0.0-8.0-0.13","female","19","Australia","70452","24756","neither","neither","imgNWTK/square.png","imgNWTK/triangle.png","noninfo","eq","2.29","","44","2","2","108","null","imgNWTK/square.png","imgNWTK/triangle.png","imgNWTK/triangle.png","NaN","NaN","","",""
"2186","","","bandit-task-exp6","60","1232845","0.0-8.0-0.14","female","19","Australia","70452","24756","neither","neither","imgNWTK/square.png","imgNWTK/triangle.png","noninfo","eq","2.29","","45","1","2","0","null","imgNWTK/triangle.png","imgNWTK/square.png","imgNWTK/square.png","NaN","NaN","","",""
"null","<p><b> Congratulations, you have finished this block. </b> </p><p>Please take a short break before moving onto the next block.</p><p>The next block will start after a 15 second break.</p><b>Remember, the point rewards are the same between blocks","","html-keyboard-response","61","1247848","0.0-9.0","female","19","Australia","70452","24756","neither","neither","imgNWTK/square.png","imgNWTK/triangle.png","noninfo","eq","2.29","","","","","","","","","","","","null","",""
"24157","","","bandit-task-exp6","62","1294935","0.0-10.0-0.0","female","19","Australia","70452","24756","neither","neither","imgNWTK/square.png","imgNWTK/triangle.png","noninfo","eq","2.29","","46","2","2","95","null","imgNWTK/triangle.png","imgNWTK/square.png","imgNWTK/triangle.png","101","0","","",""
"5851","","","bandit-task-exp6","63","1322559","0.0-10.0-0.1","female","19","Australia","70452","24756","neither","neither","imgNWTK/square.png","imgNWTK/triangle.png","noninfo","eq","2.29","","47","2","2","99","null","imgNWTK/square.png","imgNWTK/triangle.png","imgNWTK/triangle.png","0","98","","",""
"6565","","","bandit-task-exp6","64","1351042","0.0-10.0-0.2","female","19","Australia","70452","24756","neither","neither","imgNWTK/square.png","imgNWTK/triangle.png","noninfo","eq","2.29","","48","2","2","109","null","imgNWTK/triangle.png","imgNWTK/square.png","imgNWTK/triangle.png","101","0","","",""
"4851","","","bandit-task-exp6","65","1377518","0.0-10.0-0.3","female","19","Australia","70452","24756","neither","neither","imgNWTK/square.png","imgNWTK/triangle.png","noninfo","eq","2.29","","49","2","2","97","null","imgNWTK/square.png","imgNWTK/triangle.png","imgNWTK/triangle.png","0","110","","",""
"4209","","","bandit-task-exp6","66","1403908","0.0-10.0-0.4","female","19","Australia","70452","24756","neither","neither","imgNWTK/square.png","imgNWTK/triangle.png","noninfo","eq","2.29","","50","2","1","0","null","imgNWTK/square.png","imgNWTK/triangle.png","imgNWTK/triangle.png","0","110","","",""
"5121","","","bandit-task-exp6","67","1430535","0.0-10.0-0.5","female","19","Australia","70452","24756","neither","neither","imgNWTK/square.png","imgNWTK/triangle.png","noninfo","eq","2.29","","51","1","2","0","null","imgNWTK/triangle.png","imgNWTK/square.png","imgNWTK/square.png","0","110","","",""
"3349","","","bandit-task-exp6","68","1456498","0.0-10.0-0.6","female","19","Australia","70452","24756","neither","neither","imgNWTK/square.png","imgNWTK/triangle.png","noninfo","eq","2.29","","52","2","1","0","null","imgNWTK/triangle.png","imgNWTK/square.png","imgNWTK/triangle.png","110","0","","",""
"6230","","","bandit-task-exp6","69","1485580","0.0-10.0-0.7","female","19","Australia","70452","24756","neither","neither","imgNWTK/square.png","imgNWTK/triangle.png","noninfo","eq","2.29","","53","2","1","0","null","imgNWTK/square.png","imgNWTK/triangle.png","imgNWTK/triangle.png","0","105","","",""
"6104","","","bandit-task-exp6","70","1514909","0.0-10.0-0.8","female","19","Australia","70452","24756","neither","neither","imgNWTK/square.png","imgNWTK/triangle.png","noninfo","eq","2.29","","54","2","1","0","null","imgNWTK/square.png","imgNWTK/triangle.png","imgNWTK/triangle.png","0","110","","",""
"6827","","","bandit-task-exp6","71","1544214","0.0-10.0-0.9","female","19","Australia","70452","24756","neither","neither","imgNWTK/square.png","imgNWTK/triangle.png","noninfo","eq","2.29","","55","2","2","99","null","imgNWTK/triangle.png","imgNWTK/square.png","imgNWTK/triangle.png","110","0","","",""
"7858","","","bandit-task-exp6","72","1574380","0.0-10.0-0.10","female","19","Australia","70452","24756","neither","neither","imgNWTK/square.png","imgNWTK/triangle.png","noninfo","eq","2.29","","56","2","1","0","null","imgNWTK/triangle.png","imgNWTK/square.png","imgNWTK/triangle.png","110","0","","",""
"3810","","","bandit-task-exp6","73","1599764","0.0-10.0-0.11","female","19","Australia","70452","24756","neither","neither","imgNWTK/square.png","imgNWTK/triangle.png","noninfo","eq","2.29","","57","2","1","0","null","imgNWTK/triangle.png","imgNWTK/square.png","imgNWTK/triangle.png","110","0","","",""
"3640","","","bandit-task-exp6","74","1624888","0.0-10.0-0.12","female","19","Australia","70452","24756","neither","neither","imgNWTK/square.png","imgNWTK/triangle.png","noninfo","eq","2.29","","58","2","1","0","null","imgNWTK/triangle.png","imgNWTK/square.png","imgNWTK/triangle.png","98","0","","",""
"4521","","","bandit-task-exp6","75","1651155","0.0-10.0-0.13","female","19","Australia","70452","24756","neither","neither","imgNWTK/square.png","imgNWTK/triangle.png","noninfo","eq","2.29","","59","1","2","0","null","imgNWTK/square.png","imgNWTK/triangle.png","imgNWTK/square.png","98","0","","",""
"3564","","","bandit-task-exp6","76","1678017","0.0-10.0-0.14","female","19","Australia","70452","24756","neither","neither","imgNWTK/square.png","imgNWTK/triangle.png","noninfo","eq","2.29","","60","2","1","0","null","imgNWTK/square.png","imgNWTK/triangle.png","imgNWTK/triangle.png","0","100","","",""
"2391","<p> Congratulations, you have finished the main part of the experiment. </p><p>Before you finish, we have a few short questions about the options and outcomes you saw in the task.</p>","0","html-button-response","77","1680410","0.0-11.0","female","19","Australia","70452","24756","neither","neither","imgNWTK/square.png","imgNWTK/triangle.png","noninfo","eq","2.29","","","","","","","","","","","","","",""
"18078","<p><b>Now, imagine that you clicked on the below button for another 10 trials (this includes <i> BOTH WIN and NO-WIN trials</i>).</p> <img src= 'imgNWTK/triangle.png'></img></br></br> <p><b>Please type the reward (number of points) you would expect to receive on every trial.</br> Click start to begin.</p>","0","html-button-response","78","1698489","0.0-12.0","female","19","Australia","70452","24756","neither","neither","imgNWTK/square.png","imgNWTK/triangle.png","noninfo","eq","2.29","","","","","","","","","","","","","",""
"9965","","","survey-number","79","1708461","0.0-13.0-0.0","female","19","Australia","70452","24756","neither","neither","imgNWTK/square.png","imgNWTK/triangle.png","noninfo","eq","2.29","{""undefined"":""108""}","","","","","","","","","","","","imgNWTK/triangle.png",""
"4308.100000023842","","","survey-number","80","1712773","0.0-13.0-0.1","female","19","Australia","70452","24756","neither","neither","imgNWTK/square.png","imgNWTK/triangle.png","noninfo","eq","2.29","{""undefined"":""0""}","","","","","","","","","","","","imgNWTK/triangle.png",""
"1572.0999999642372","","","survey-number","81","1714348","0.0-13.0-0.2","female","19","Australia","70452","24756","neither","neither","imgNWTK/square.png","imgNWTK/triangle.png","noninfo","eq","2.29","{""undefined"":""98""}","","","","","","","","","","","","imgNWTK/triangle.png",""
"3359.7000000476837","","","survey-number","82","1717710","0.0-13.0-0.3","female","19","Australia","70452","24756","neither","neither","imgNWTK/square.png","imgNWTK/triangle.png","noninfo","eq","2.29","{""undefined"":""100""}","","","","","","","","","","","","imgNWTK/triangle.png",""
"1140.8999999761581","","","survey-number","83","1718854","0.0-13.0-0.4","female","19","Australia","70452","24756","neither","neither","imgNWTK/square.png","imgNWTK/triangle.png","noninfo","eq","2.29","{""undefined"":""0""}","","","","","","","","","","","","imgNWTK/triangle.png",""
"2323.699999988079","","","survey-number","84","1721181","0.0-13.0-0.5","female","19","Australia","70452","24756","neither","neither","imgNWTK/square.png","imgNWTK/triangle.png","noninfo","eq","2.29","{""undefined"":""99""}","","","","","","","","","","","","imgNWTK/triangle.png",""
"1116.5","","","survey-number","85","1722300","0.0-13.0-0.6","female","19","Australia","70452","24756","neither","neither","imgNWTK/square.png","imgNWTK/triangle.png","noninfo","eq","2.29","{""undefined"":""0""}","","","","","","","","","","","","imgNWTK/triangle.png",""
"1116.199999988079","","","survey-number","86","1723419","0.0-13.0-0.7","female","19","Australia","70452","24756","neither","neither","imgNWTK/square.png","imgNWTK/triangle.png","noninfo","eq","2.29","{""undefined"":""0""}","","","","","","","","","","","","imgNWTK/triangle.png",""
"4066.199999988079","","","survey-number","87","1727488","0.0-13.0-0.8","female","19","Australia","70452","24756","neither","neither","imgNWTK/square.png","imgNWTK/triangle.png","noninfo","eq","2.29","{""undefined"":""90""}","","","","","","","","","","","","imgNWTK/triangle.png",""
"1097.800000011921","","","survey-number","88","1728590","0.0-13.0-0.9","female","19","Australia","70452","24756","neither","neither","imgNWTK/square.png","imgNWTK/triangle.png","noninfo","eq","2.29","{""undefined"":""0""}","","","","","","","","","","","","imgNWTK/triangle.png",""
"1607","<p><b>Imagine that you clicked on the below button for another 10 trials (this includes <i> both WIN and NO-WIN trials</i>).</p> <img src= 'imgNWTK/square.png'></img></br></br> <p><b>Please type the reward (number of points) you would expect to receive on every trial.</br> Click start to begin.</p>","0","html-button-response","89","1730199","0.0-14.0","female","19","Australia","70452","24756","neither","neither","imgNWTK/square.png","imgNWTK/triangle.png","noninfo","eq","2.29","","","","","","","","","","","","","",""
"1458.8999999761581","","","survey-number","90","1731660","0.0-15.0-0.0","female","19","Australia","70452","24756","neither","neither","imgNWTK/square.png","imgNWTK/triangle.png","noninfo","eq","2.29","{""undefined"":""0""}","","","","","","","","","","","","imgNWTK/square.png",""
"1965.7999999523163","","","survey-number","91","1733629","0.0-15.0-0.1","female","19","Australia","70452","24756","neither","neither","imgNWTK/square.png","imgNWTK/triangle.png","noninfo","eq","2.29","{""undefined"":""0""}","","","","","","","","","","","","imgNWTK/square.png",""
"1899.699999988079","","","survey-number","92","1735531","0.0-15.0-0.2","female","19","Australia","70452","24756","neither","neither","imgNWTK/square.png","imgNWTK/triangle.png","noninfo","eq","2.29","{""undefined"":""98""}","","","","","","","","","","","","imgNWTK/square.png",""
"821.8000000119209","","","survey-number","93","1736355","0.0-15.0-0.3","female","19","Australia","70452","24756","neither","neither","imgNWTK/square.png","imgNWTK/triangle.png","noninfo","eq","2.29","{""undefined"":""0""}","","","","","","","","","","","","imgNWTK/square.png",""
"1565","","","survey-number","94","1737923","0.0-15.0-0.4","female","19","Australia","70452","24756","neither","neither","imgNWTK/square.png","imgNWTK/triangle.png","noninfo","eq","2.29","{""undefined"":""0""}","","","","","","","","","","","","imgNWTK/square.png",""
"1326.800000011921","","","survey-number","95","1739253","0.0-15.0-0.5","female","19","Australia","70452","24756","neither","neither","imgNWTK/square.png","imgNWTK/triangle.png","noninfo","eq","2.29","{""undefined"":""0""}","","","","","","","","","","","","imgNWTK/square.png",""
"3329.2000000476837","","","survey-number","96","1742584","0.0-15.0-0.6","female","19","Australia","70452","24756","neither","neither","imgNWTK/square.png","imgNWTK/triangle.png","noninfo","eq","2.29","{""undefined"":""99""}","","","","","","","","","","","","imgNWTK/square.png",""
"1123.300000011921","","","survey-number","97","1743711","0.0-15.0-0.7","female","19","Australia","70452","24756","neither","neither","imgNWTK/square.png","imgNWTK/triangle.png","noninfo","eq","2.29","{""undefined"":""0""}","","","","","","","","","","","","imgNWTK/square.png",""
"1213.6000000238419","","","survey-number","98","1744927","0.0-15.0-0.8","female","19","Australia","70452","24756","neither","neither","imgNWTK/square.png","imgNWTK/triangle.png","noninfo","eq","2.29","{""undefined"":""0""}","","","","","","","","","","","","imgNWTK/square.png",""
"1410.8999999761581","","","survey-number","99","1746341","0.0-15.0-0.9","female","19","Australia","70452","24756","neither","neither","imgNWTK/square.png","imgNWTK/triangle.png","noninfo","eq","2.29","{""undefined"":""0""}","","","","","","","","","","","","imgNWTK/square.png",""
"16102.5","","","survey-number","100","1762449","0.0-16.0","female","19","Australia","70452","24756","neither","neither","imgNWTK/square.png","imgNWTK/triangle.png","noninfo","eq","2.29","{""undefined"":""98""}","","","","","","","","","","","","","imgNWTK/triangle.png"
"17420.19999998808","","","survey-number","101","1779873","0.0-17.0","female","19","Australia","70452","24756","neither","neither","imgNWTK/square.png","imgNWTK/triangle.png","noninfo","eq","2.29","{""undefined"":""50""}","","","","","","","","","","","","","imgNWTK/square.png"
"90316","<p style=""text-align:left;"">Great! We are almost at the end of the study... (Please do not close the browser window yet.)</p><p> Your final points balance is 2293, which equals to a bonus payment of $2.29. Please collect your payment from Mathews Building Room 721 (Mon-Fri 9am-5pm); please email amy.x.li@unsw.edu.au at least 24 hours prior to collection so that this is ready for you.</p><p style=""text-align:left;"">To view the debriefing form, please click <a href=""./imgNWTK/debrief_3205.pdf"" target=""_blank"">here</a> to download a copy.</p><p style=""text-align:left;"">Then, <b>please click the below button</b> to confirm that you have received your debrief and to complete the study. Upon clicking ""Finish!"", your SONA credit will be automatically assigned.</p>","0","html-button-response","102","1870192","0.0-18.0","female","19","Australia","70452","24756","neither","neither","imgNWTK/square.png","imgNWTK/triangle.png","noninfo","eq","2.29","","","","","","","","","","","","","",""
