"rt","stimulus","button_pressed","trial_type","trial_index","time_elapsed","internal_node_id","gender","age","language","PID","sona_id","subStim","optStim","stim1","stim2","infoCond","optimCond","bonus","responses","banditTrial","choice","cue","feedback","estimateData","leftOption","rightOption","choiceName","leftInput","rightInput","key_press","postQ","singleEst"
"692771","<p>Thank you for signing up to participate in SONA Study 465! <br> During this study, please focus on the experiment and refrain from activities such as:</p>- <b>Switching to other tabs on your browser (this will be monitored via the experiment)</br> - Using your mobile phone/cell phone</br> - Communicating with others</br></br></b><p>This way, you are helping to provide data that is useful for psychological research. We thank you for your cooperation!</p>","0","html-button-response","0","692774","0.0-0.0","female","18","Australia","98955","24703","imgNWTK/triangle.png","imgNWTK/square.png","imgNWTK/triangle.png","imgNWTK/square.png","noninfo","optim","3.49","","","","","","","","","","","","","",""
"880","<p>Welcome to the experiment!</p><p>You will now read some instructions about the task. Press the 'Next' button to continue. </p>","0","html-button-response","1","693656","0.0-1.0","female","18","Australia","98955","24703","imgNWTK/triangle.png","imgNWTK/square.png","imgNWTK/triangle.png","imgNWTK/square.png","noninfo","optim","3.49","","","","","","","","","","","","","",""
"29083","<p> On each trial throughout the experiment you will choose between two options, </br>a <b>Black Square </b> and <b> Black Triangle </b>, as seen below.</p><div><div style= 'float: left; width: 300px; margin: 10px 10px;'><img src= 'imgNWTK/square.png'></img></div><div style= 'float: right; width: 300px; margin: 10px 10px;'><img src= 'imgNWTK/triangle.png'></img></div></div><br/><br/><br/><br/><br/><br/><br/><br/><br/><br/><br/><p>Each option results in winning points or receiving 0 points.</br>There is a 50% chance of either winning or receiving 0 points.</p><p>You won't receive the outcome until after a <b> 20 second delay</b>.</p>","0","html-button-response","2","722741","0.0-2.0-0.0","female","18","Australia","98955","24703","imgNWTK/triangle.png","imgNWTK/square.png","imgNWTK/triangle.png","imgNWTK/square.png","noninfo","optim","3.49","","","","","","","","","","","","","",""
"59814","<img src= 'imgNWTK/NonInfoDiagram.png'></img><p>As seen above, whether you choose the square or triangle, you will receive a coloured circle after the choice. </p> <p>This circle will be on screen for 20 seconds until you win points or receive 0 points.</p><p>The coloured circle depends on which option you chose. </br> In the above example, choosing a triangle leads to a green circle and choosing the square leads to a red circle.</p>Please note: the circles in your task will be different to the above colours.</br></br>","0","html-button-response","3","782557","0.0-2.0-1.0","female","18","Australia","98955","24703","imgNWTK/triangle.png","imgNWTK/square.png","imgNWTK/triangle.png","imgNWTK/square.png","noninfo","optim","3.49","","","","","","","","","","","","","",""
"9667","<img src= 'cues/winTrials_noInfo.png' width = '1200'></img><p>To reiterate, 50% of the outcomes of each option will be WIN TRIALS, and the other 50% will be NO-WIN TRIALS.","0","html-button-response","4","792224","0.0-2.0-2.0","female","18","Australia","98955","24703","imgNWTK/triangle.png","imgNWTK/square.png","imgNWTK/triangle.png","imgNWTK/square.png","noninfo","optim","3.49","","","","","","","","","","","","","",""
"49227","<p> There will be <b>four blocks</b> in the experiment.</br>You will be given a short 15 second break between each block.</p><p><b>The points and the options will remain the same between the blocks.</b></p>The blocks are there just to give you a small break.</br></br></br></br><p>The points you earn in the task are also equal to <b> actual money</b>.</br> <b>1000 points is equal to $1 AUD</b></p><p>This is the rate you will be paid at the experiment's end.","0","html-button-response","5","841453","0.0-2.0-3.0","female","18","Australia","98955","24703","imgNWTK/triangle.png","imgNWTK/square.png","imgNWTK/triangle.png","imgNWTK/square.png","noninfo","optim","3.49","","","","","","","","","","","","","",""
"21066","","","survey-multi-choice","6","862526","0.0-2.0-4.0","female","18","Australia","98955","24703","imgNWTK/triangle.png","imgNWTK/square.png","imgNWTK/triangle.png","imgNWTK/square.png","noninfo","optim","3.49","{""Q0"":""20 Seconds"",""Q1"":""True"",""Q2"":""Equally""}","","","","","","","","","","","","",""
"13532","<p> Well done, all your answers were correct! <br> The experiment is about to start now. <br/> Click start to continue, or email your researcher <b>(amy.x.li@unsw.edu.au)</b> if you have any questions before starting.","0","html-button-response","7","876061","0.0-3.0","female","18","Australia","98955","24703","imgNWTK/triangle.png","imgNWTK/square.png","imgNWTK/triangle.png","imgNWTK/square.png","noninfo","optim","3.49","","","","","","","","","","","","","",""
"2688","","","bandit-task-exp6","8","905508","0.0-4.0-0.0","female","18","Australia","98955","24703","imgNWTK/triangle.png","imgNWTK/square.png","imgNWTK/triangle.png","imgNWTK/square.png","noninfo","optim","3.49","","1","2","1","0","null","imgNWTK/square.png","imgNWTK/triangle.png","imgNWTK/square.png","NaN","NaN","","",""
"4012","","","bandit-task-exp6","9","933400","0.0-4.0-0.1","female","18","Australia","98955","24703","imgNWTK/triangle.png","imgNWTK/square.png","imgNWTK/triangle.png","imgNWTK/square.png","noninfo","optim","3.49","","2","1","1","75","null","imgNWTK/square.png","imgNWTK/triangle.png","imgNWTK/triangle.png","NaN","NaN","","",""
"788","","","bandit-task-exp6","10","957236","0.0-4.0-0.2","female","18","Australia","98955","24703","imgNWTK/triangle.png","imgNWTK/square.png","imgNWTK/triangle.png","imgNWTK/square.png","noninfo","optim","3.49","","3","1","1","80","null","imgNWTK/triangle.png","imgNWTK/square.png","imgNWTK/triangle.png","NaN","NaN","","",""
"2488","","","bandit-task-exp6","11","983224","0.0-4.0-0.3","female","18","Australia","98955","24703","imgNWTK/triangle.png","imgNWTK/square.png","imgNWTK/triangle.png","imgNWTK/square.png","noninfo","optim","3.49","","4","2","2","130","null","imgNWTK/triangle.png","imgNWTK/square.png","imgNWTK/square.png","NaN","NaN","","",""
"1108","","","bandit-task-exp6","12","1007460","0.0-4.0-0.4","female","18","Australia","98955","24703","imgNWTK/triangle.png","imgNWTK/square.png","imgNWTK/triangle.png","imgNWTK/square.png","noninfo","optim","3.49","","5","2","2","115","null","imgNWTK/triangle.png","imgNWTK/square.png","imgNWTK/square.png","NaN","NaN","","",""
"1365","","","bandit-task-exp6","13","1032076","0.0-4.0-0.5","female","18","Australia","98955","24703","imgNWTK/triangle.png","imgNWTK/square.png","imgNWTK/triangle.png","imgNWTK/square.png","noninfo","optim","3.49","","6","1","2","0","null","imgNWTK/square.png","imgNWTK/triangle.png","imgNWTK/triangle.png","NaN","NaN","","",""
"3052","","","bandit-task-exp6","14","1065369","0.0-4.0-0.6","female","18","Australia","98955","24703","imgNWTK/triangle.png","imgNWTK/square.png","imgNWTK/triangle.png","imgNWTK/square.png","noninfo","optim","3.49","","7","1","2","0","null","imgNWTK/square.png","imgNWTK/triangle.png","imgNWTK/triangle.png","NaN","NaN","","",""
"1047","","","bandit-task-exp6","15","1098167","0.0-4.0-0.7","female","18","Australia","98955","24703","imgNWTK/triangle.png","imgNWTK/square.png","imgNWTK/triangle.png","imgNWTK/square.png","noninfo","optim","3.49","","8","2","1","0","null","imgNWTK/square.png","imgNWTK/triangle.png","imgNWTK/square.png","NaN","NaN","","",""
"924","","","bandit-task-exp6","16","1131888","0.0-4.0-0.8","female","18","Australia","98955","24703","imgNWTK/triangle.png","imgNWTK/square.png","imgNWTK/triangle.png","imgNWTK/square.png","noninfo","optim","3.49","","9","2","1","0","null","imgNWTK/triangle.png","imgNWTK/square.png","imgNWTK/square.png","NaN","NaN","","",""
"1365","","","bandit-task-exp6","17","1156428","0.0-4.0-0.9","female","18","Australia","98955","24703","imgNWTK/triangle.png","imgNWTK/square.png","imgNWTK/triangle.png","imgNWTK/square.png","noninfo","optim","3.49","","10","2","1","0","null","imgNWTK/square.png","imgNWTK/triangle.png","imgNWTK/square.png","NaN","NaN","","",""
"677","","","bandit-task-exp6","18","1180666","0.0-4.0-0.10","female","18","Australia","98955","24703","imgNWTK/triangle.png","imgNWTK/square.png","imgNWTK/triangle.png","imgNWTK/square.png","noninfo","optim","3.49","","11","2","2","123","null","imgNWTK/square.png","imgNWTK/triangle.png","imgNWTK/square.png","NaN","NaN","","",""
"1318","","","bandit-task-exp6","19","1205971","0.0-4.0-0.11","female","18","Australia","98955","24703","imgNWTK/triangle.png","imgNWTK/square.png","imgNWTK/triangle.png","imgNWTK/square.png","noninfo","optim","3.49","","12","2","2","112","null","imgNWTK/triangle.png","imgNWTK/square.png","imgNWTK/square.png","NaN","NaN","","",""
"774","","","bandit-task-exp6","20","1228975","0.0-4.0-0.12","female","18","Australia","98955","24703","imgNWTK/triangle.png","imgNWTK/square.png","imgNWTK/triangle.png","imgNWTK/square.png","noninfo","optim","3.49","","13","1","2","0","null","imgNWTK/square.png","imgNWTK/triangle.png","imgNWTK/triangle.png","NaN","NaN","","",""
"836","","","bandit-task-exp6","21","1251928","0.0-4.0-0.13","female","18","Australia","98955","24703","imgNWTK/triangle.png","imgNWTK/square.png","imgNWTK/triangle.png","imgNWTK/square.png","noninfo","optim","3.49","","14","1","1","70","null","imgNWTK/square.png","imgNWTK/triangle.png","imgNWTK/triangle.png","NaN","NaN","","",""
"588","","","bandit-task-exp6","22","1275711","0.0-4.0-0.14","female","18","Australia","98955","24703","imgNWTK/triangle.png","imgNWTK/square.png","imgNWTK/triangle.png","imgNWTK/square.png","noninfo","optim","3.49","","15","2","2","125","null","imgNWTK/triangle.png","imgNWTK/square.png","imgNWTK/square.png","NaN","NaN","","",""
"null","<p><b> Congratulations, you have finished this block. </b> </p><p>Please take a short break before moving onto the next block.</p><p>The next block will start after a 15 second break.</p><b>Remember, the point rewards are the same between blocks","","html-keyboard-response","23","1290720","0.0-5.0","female","18","Australia","98955","24703","imgNWTK/triangle.png","imgNWTK/square.png","imgNWTK/triangle.png","imgNWTK/square.png","noninfo","optim","3.49","","","","","","","","","","","","null","",""
"3333","","","bandit-task-exp6","24","1316844","0.0-6.0-0.0","female","18","Australia","98955","24703","imgNWTK/triangle.png","imgNWTK/square.png","imgNWTK/triangle.png","imgNWTK/square.png","noninfo","optim","3.49","","16","1","2","0","null","imgNWTK/triangle.png","imgNWTK/square.png","imgNWTK/triangle.png","NaN","NaN","","",""
"868","","","bandit-task-exp6","25","1340379","0.0-6.0-0.1","female","18","Australia","98955","24703","imgNWTK/triangle.png","imgNWTK/square.png","imgNWTK/triangle.png","imgNWTK/square.png","noninfo","optim","3.49","","17","1","1","78","null","imgNWTK/square.png","imgNWTK/triangle.png","imgNWTK/triangle.png","NaN","NaN","","",""
"564","","","bandit-task-exp6","26","1364256","0.0-6.0-0.2","female","18","Australia","98955","24703","imgNWTK/triangle.png","imgNWTK/square.png","imgNWTK/triangle.png","imgNWTK/square.png","noninfo","optim","3.49","","18","2","2","116","null","imgNWTK/triangle.png","imgNWTK/square.png","imgNWTK/square.png","NaN","NaN","","",""
"909","","","bandit-task-exp6","27","1394702","0.0-6.0-0.3","female","18","Australia","98955","24703","imgNWTK/triangle.png","imgNWTK/square.png","imgNWTK/triangle.png","imgNWTK/square.png","noninfo","optim","3.49","","19","2","1","0","null","imgNWTK/triangle.png","imgNWTK/square.png","imgNWTK/square.png","NaN","NaN","","",""
"814","","","bandit-task-exp6","28","1418323","0.0-6.0-0.4","female","18","Australia","98955","24703","imgNWTK/triangle.png","imgNWTK/square.png","imgNWTK/triangle.png","imgNWTK/square.png","noninfo","optim","3.49","","20","2","1","0","null","imgNWTK/square.png","imgNWTK/triangle.png","imgNWTK/square.png","NaN","NaN","","",""
"552","","","bandit-task-exp6","29","1441626","0.0-6.0-0.5","female","18","Australia","98955","24703","imgNWTK/triangle.png","imgNWTK/square.png","imgNWTK/triangle.png","imgNWTK/square.png","noninfo","optim","3.49","","21","2","1","0","null","imgNWTK/triangle.png","imgNWTK/square.png","imgNWTK/square.png","NaN","NaN","","",""
"1226","","","bandit-task-exp6","30","1465842","0.0-6.0-0.6","female","18","Australia","98955","24703","imgNWTK/triangle.png","imgNWTK/square.png","imgNWTK/triangle.png","imgNWTK/square.png","noninfo","optim","3.49","","22","2","2","111","null","imgNWTK/square.png","imgNWTK/triangle.png","imgNWTK/square.png","NaN","NaN","","",""
"1045","","","bandit-task-exp6","31","1489935","0.0-6.0-0.7","female","18","Australia","98955","24703","imgNWTK/triangle.png","imgNWTK/square.png","imgNWTK/triangle.png","imgNWTK/square.png","noninfo","optim","3.49","","23","2","2","123","null","imgNWTK/square.png","imgNWTK/triangle.png","imgNWTK/square.png","NaN","NaN","","",""
"1145","","","bandit-task-exp6","32","1513919","0.0-6.0-0.8","female","18","Australia","98955","24703","imgNWTK/triangle.png","imgNWTK/square.png","imgNWTK/triangle.png","imgNWTK/square.png","noninfo","optim","3.49","","24","2","2","122","null","imgNWTK/triangle.png","imgNWTK/square.png","imgNWTK/square.png","NaN","NaN","","",""
"557","","","bandit-task-exp6","33","1537095","0.0-6.0-0.9","female","18","Australia","98955","24703","imgNWTK/triangle.png","imgNWTK/square.png","imgNWTK/triangle.png","imgNWTK/square.png","noninfo","optim","3.49","","25","2","1","0","null","imgNWTK/triangle.png","imgNWTK/square.png","imgNWTK/square.png","NaN","NaN","","",""
"533","","","bandit-task-exp6","34","1559807","0.0-6.0-0.10","female","18","Australia","98955","24703","imgNWTK/triangle.png","imgNWTK/square.png","imgNWTK/triangle.png","imgNWTK/square.png","noninfo","optim","3.49","","26","2","1","0","null","imgNWTK/triangle.png","imgNWTK/square.png","imgNWTK/square.png","NaN","NaN","","",""
"405","","","bandit-task-exp6","35","1588490","0.0-6.0-0.11","female","18","Australia","98955","24703","imgNWTK/triangle.png","imgNWTK/square.png","imgNWTK/triangle.png","imgNWTK/square.png","noninfo","optim","3.49","","27","2","2","129","null","imgNWTK/triangle.png","imgNWTK/square.png","imgNWTK/square.png","NaN","NaN","","",""
"502","","","bandit-task-exp6","36","1612171","0.0-6.0-0.12","female","18","Australia","98955","24703","imgNWTK/triangle.png","imgNWTK/square.png","imgNWTK/triangle.png","imgNWTK/square.png","noninfo","optim","3.49","","28","2","1","0","null","imgNWTK/triangle.png","imgNWTK/square.png","imgNWTK/square.png","NaN","NaN","","",""
"621","","","bandit-task-exp6","37","1634835","0.0-6.0-0.13","female","18","Australia","98955","24703","imgNWTK/triangle.png","imgNWTK/square.png","imgNWTK/triangle.png","imgNWTK/square.png","noninfo","optim","3.49","","29","2","1","0","null","imgNWTK/triangle.png","imgNWTK/square.png","imgNWTK/square.png","NaN","NaN","","",""
"1805","","","bandit-task-exp6","38","1659694","0.0-6.0-0.14","female","18","Australia","98955","24703","imgNWTK/triangle.png","imgNWTK/square.png","imgNWTK/triangle.png","imgNWTK/square.png","noninfo","optim","3.49","","30","1","2","0","null","imgNWTK/square.png","imgNWTK/triangle.png","imgNWTK/triangle.png","NaN","NaN","","",""
"null","<p><b> Congratulations, you have finished this block. </b> </p><p>Please take a short break before moving onto the next block.</p><p>The next block will start after a 15 second break.</p><b>Remember, the point rewards are the same between blocks","","html-keyboard-response","39","1674696","0.0-7.0","female","18","Australia","98955","24703","imgNWTK/triangle.png","imgNWTK/square.png","imgNWTK/triangle.png","imgNWTK/square.png","noninfo","optim","3.49","","","","","","","","","","","","null","",""
"3600","","","bandit-task-exp6","40","1702982","0.0-8.0-0.0","female","18","Australia","98955","24703","imgNWTK/triangle.png","imgNWTK/square.png","imgNWTK/triangle.png","imgNWTK/square.png","noninfo","optim","3.49","","31","2","2","116","null","imgNWTK/square.png","imgNWTK/triangle.png","imgNWTK/square.png","NaN","NaN","","",""
"869","","","bandit-task-exp6","41","1726163","0.0-8.0-0.1","female","18","Australia","98955","24703","imgNWTK/triangle.png","imgNWTK/square.png","imgNWTK/triangle.png","imgNWTK/square.png","noninfo","optim","3.49","","32","2","1","0","null","imgNWTK/square.png","imgNWTK/triangle.png","imgNWTK/square.png","NaN","NaN","","",""
"836","","","bandit-task-exp6","42","1749089","0.0-8.0-0.2","female","18","Australia","98955","24703","imgNWTK/triangle.png","imgNWTK/square.png","imgNWTK/triangle.png","imgNWTK/square.png","noninfo","optim","3.49","","33","2","2","111","null","imgNWTK/square.png","imgNWTK/triangle.png","imgNWTK/square.png","NaN","NaN","","",""
"1070","","","bandit-task-exp6","43","1774090","0.0-8.0-0.3","female","18","Australia","98955","24703","imgNWTK/triangle.png","imgNWTK/square.png","imgNWTK/triangle.png","imgNWTK/square.png","noninfo","optim","3.49","","34","2","2","129","null","imgNWTK/square.png","imgNWTK/triangle.png","imgNWTK/square.png","NaN","NaN","","",""
"1277","","","bandit-task-exp6","44","1797185","0.0-8.0-0.4","female","18","Australia","98955","24703","imgNWTK/triangle.png","imgNWTK/square.png","imgNWTK/triangle.png","imgNWTK/square.png","noninfo","optim","3.49","","35","2","1","0","null","imgNWTK/square.png","imgNWTK/triangle.png","imgNWTK/square.png","NaN","NaN","","",""
"873","","","bandit-task-exp6","45","1822461","0.0-8.0-0.5","female","18","Australia","98955","24703","imgNWTK/triangle.png","imgNWTK/square.png","imgNWTK/triangle.png","imgNWTK/square.png","noninfo","optim","3.49","","36","2","2","121","null","imgNWTK/triangle.png","imgNWTK/square.png","imgNWTK/square.png","NaN","NaN","","",""
"821","","","bandit-task-exp6","46","1847750","0.0-8.0-0.6","female","18","Australia","98955","24703","imgNWTK/triangle.png","imgNWTK/square.png","imgNWTK/triangle.png","imgNWTK/square.png","noninfo","optim","3.49","","37","2","2","124","null","imgNWTK/triangle.png","imgNWTK/square.png","imgNWTK/square.png","NaN","NaN","","",""
"765","","","bandit-task-exp6","47","1871366","0.0-8.0-0.7","female","18","Australia","98955","24703","imgNWTK/triangle.png","imgNWTK/square.png","imgNWTK/triangle.png","imgNWTK/square.png","noninfo","optim","3.49","","38","2","1","0","null","imgNWTK/square.png","imgNWTK/triangle.png","imgNWTK/square.png","NaN","NaN","","",""
"797","","","bandit-task-exp6","48","1895691","0.0-8.0-0.8","female","18","Australia","98955","24703","imgNWTK/triangle.png","imgNWTK/square.png","imgNWTK/triangle.png","imgNWTK/square.png","noninfo","optim","3.49","","39","2","2","124","null","imgNWTK/square.png","imgNWTK/triangle.png","imgNWTK/square.png","NaN","NaN","","",""
"1116","","","bandit-task-exp6","49","1919138","0.0-8.0-0.9","female","18","Australia","98955","24703","imgNWTK/triangle.png","imgNWTK/square.png","imgNWTK/triangle.png","imgNWTK/square.png","noninfo","optim","3.49","","40","2","1","0","null","imgNWTK/triangle.png","imgNWTK/square.png","imgNWTK/square.png","NaN","NaN","","",""
"781","","","bandit-task-exp6","50","1943789","0.0-8.0-0.10","female","18","Australia","98955","24703","imgNWTK/triangle.png","imgNWTK/square.png","imgNWTK/triangle.png","imgNWTK/square.png","noninfo","optim","3.49","","41","2","1","0","null","imgNWTK/square.png","imgNWTK/triangle.png","imgNWTK/square.png","NaN","NaN","","",""
"522","","","bandit-task-exp6","51","1968061","0.0-8.0-0.11","female","18","Australia","98955","24703","imgNWTK/triangle.png","imgNWTK/square.png","imgNWTK/triangle.png","imgNWTK/square.png","noninfo","optim","3.49","","42","2","2","112","null","imgNWTK/triangle.png","imgNWTK/square.png","imgNWTK/square.png","NaN","NaN","","",""
"1965","","","bandit-task-exp6","52","1992662","0.0-8.0-0.12","female","18","Australia","98955","24703","imgNWTK/triangle.png","imgNWTK/square.png","imgNWTK/triangle.png","imgNWTK/square.png","noninfo","optim","3.49","","43","2","2","113","null","imgNWTK/square.png","imgNWTK/triangle.png","imgNWTK/square.png","NaN","NaN","","",""
"1412","","","bandit-task-exp6","53","2016010","0.0-8.0-0.13","female","18","Australia","98955","24703","imgNWTK/triangle.png","imgNWTK/square.png","imgNWTK/triangle.png","imgNWTK/square.png","noninfo","optim","3.49","","44","2","1","0","null","imgNWTK/triangle.png","imgNWTK/square.png","imgNWTK/square.png","NaN","NaN","","",""
"941","","","bandit-task-exp6","54","2039537","0.0-8.0-0.14","female","18","Australia","98955","24703","imgNWTK/triangle.png","imgNWTK/square.png","imgNWTK/triangle.png","imgNWTK/square.png","noninfo","optim","3.49","","45","2","1","0","null","imgNWTK/square.png","imgNWTK/triangle.png","imgNWTK/square.png","NaN","NaN","","",""
"null","<p><b> Congratulations, you have finished this block. </b> </p><p>Please take a short break before moving onto the next block.</p><p>The next block will start after a 15 second break.</p><b>Remember, the point rewards are the same between blocks","","html-keyboard-response","55","2054552","0.0-9.0","female","18","Australia","98955","24703","imgNWTK/triangle.png","imgNWTK/square.png","imgNWTK/triangle.png","imgNWTK/square.png","noninfo","optim","3.49","","","","","","","","","","","","null","",""
"20299","","","bandit-task-exp6","56","2098806","0.0-10.0-0.0","female","18","Australia","98955","24703","imgNWTK/triangle.png","imgNWTK/square.png","imgNWTK/triangle.png","imgNWTK/square.png","noninfo","optim","3.49","","46","2","2","115","null","imgNWTK/triangle.png","imgNWTK/square.png","imgNWTK/square.png","66","137","","",""
"18429","","","bandit-task-exp6","57","2140598","0.0-10.0-0.1","female","18","Australia","98955","24703","imgNWTK/triangle.png","imgNWTK/square.png","imgNWTK/triangle.png","imgNWTK/square.png","noninfo","optim","3.49","","47","2","2","129","null","imgNWTK/square.png","imgNWTK/triangle.png","imgNWTK/square.png","130","70","","",""
"8028","","","bandit-task-exp6","58","2173097","0.0-10.0-0.2","female","18","Australia","98955","24703","imgNWTK/triangle.png","imgNWTK/square.png","imgNWTK/triangle.png","imgNWTK/square.png","noninfo","optim","3.49","","48","2","2","112","null","imgNWTK/triangle.png","imgNWTK/square.png","imgNWTK/square.png","60","130","","",""
"8205","","","bandit-task-exp6","59","2204545","0.0-10.0-0.3","female","18","Australia","98955","24703","imgNWTK/triangle.png","imgNWTK/square.png","imgNWTK/triangle.png","imgNWTK/square.png","noninfo","optim","3.49","","49","2","1","0","null","imgNWTK/triangle.png","imgNWTK/square.png","imgNWTK/square.png","60","130","","",""
"7379","","","bandit-task-exp6","60","2234237","0.0-10.0-0.4","female","18","Australia","98955","24703","imgNWTK/triangle.png","imgNWTK/square.png","imgNWTK/triangle.png","imgNWTK/square.png","noninfo","optim","3.49","","50","2","2","120","null","imgNWTK/triangle.png","imgNWTK/square.png","imgNWTK/square.png","70","130","","",""
"5180","","","bandit-task-exp6","61","2261613","0.0-10.0-0.5","female","18","Australia","98955","24703","imgNWTK/triangle.png","imgNWTK/square.png","imgNWTK/triangle.png","imgNWTK/square.png","noninfo","optim","3.49","","51","2","1","0","null","imgNWTK/triangle.png","imgNWTK/square.png","imgNWTK/square.png","60","130","","",""
"6068","","","bandit-task-exp6","62","2294465","0.0-10.0-0.6","female","18","Australia","98955","24703","imgNWTK/triangle.png","imgNWTK/square.png","imgNWTK/triangle.png","imgNWTK/square.png","noninfo","optim","3.49","","52","2","2","127","null","imgNWTK/triangle.png","imgNWTK/square.png","imgNWTK/square.png","60","170","","",""
"6777","","","bandit-task-exp6","63","2324201","0.0-10.0-0.7","female","18","Australia","98955","24703","imgNWTK/triangle.png","imgNWTK/square.png","imgNWTK/triangle.png","imgNWTK/square.png","noninfo","optim","3.49","","53","2","1","0","null","imgNWTK/square.png","imgNWTK/triangle.png","imgNWTK/square.png","130","60","","",""
"13647","","","bandit-task-exp6","64","2363945","0.0-10.0-0.8","female","18","Australia","98955","24703","imgNWTK/triangle.png","imgNWTK/square.png","imgNWTK/triangle.png","imgNWTK/square.png","noninfo","optim","3.49","","54","2","1","0","null","imgNWTK/triangle.png","imgNWTK/square.png","imgNWTK/square.png","60","170","","",""
"8203","","","bandit-task-exp6","65","2396557","0.0-10.0-0.9","female","18","Australia","98955","24703","imgNWTK/triangle.png","imgNWTK/square.png","imgNWTK/triangle.png","imgNWTK/square.png","noninfo","optim","3.49","","55","2","2","112","null","imgNWTK/triangle.png","imgNWTK/square.png","imgNWTK/square.png","60","170","","",""
"7572","","","bandit-task-exp6","66","2427041","0.0-10.0-0.10","female","18","Australia","98955","24703","imgNWTK/triangle.png","imgNWTK/square.png","imgNWTK/triangle.png","imgNWTK/square.png","noninfo","optim","3.49","","56","1","1","89","null","imgNWTK/triangle.png","imgNWTK/square.png","imgNWTK/triangle.png","60","120","","",""
"8279","","","bandit-task-exp6","67","2467640","0.0-10.0-0.11","female","18","Australia","98955","24703","imgNWTK/triangle.png","imgNWTK/square.png","imgNWTK/triangle.png","imgNWTK/square.png","noninfo","optim","3.49","","57","1","2","0","null","imgNWTK/square.png","imgNWTK/triangle.png","imgNWTK/triangle.png","160","90","","",""
"16140","","","bandit-task-exp6","68","2514257","0.0-10.0-0.12","female","18","Australia","98955","24703","imgNWTK/triangle.png","imgNWTK/square.png","imgNWTK/triangle.png","imgNWTK/square.png","noninfo","optim","3.49","","58","2","1","0","null","imgNWTK/triangle.png","imgNWTK/square.png","imgNWTK/square.png","60","170","","",""
"11017","","","bandit-task-exp6","69","2555013","0.0-10.0-0.13","female","18","Australia","98955","24703","imgNWTK/triangle.png","imgNWTK/square.png","imgNWTK/triangle.png","imgNWTK/square.png","noninfo","optim","3.49","","59","2","2","112","null","imgNWTK/triangle.png","imgNWTK/square.png","imgNWTK/square.png","60","170","","",""
"6140","","","bandit-task-exp6","70","2584938","0.0-10.0-0.14","female","18","Australia","98955","24703","imgNWTK/triangle.png","imgNWTK/square.png","imgNWTK/triangle.png","imgNWTK/square.png","noninfo","optim","3.49","","60","2","2","116","null","imgNWTK/square.png","imgNWTK/triangle.png","imgNWTK/square.png","170","60","","",""
"1369","<p> Congratulations, you have finished the main part of the experiment. </p><p>Before you finish, we have a few short questions about the options and outcomes you saw in the task.</p>","0","html-button-response","71","2586309","0.0-11.0","female","18","Australia","98955","24703","imgNWTK/triangle.png","imgNWTK/square.png","imgNWTK/triangle.png","imgNWTK/square.png","noninfo","optim","3.49","","","","","","","","","","","","","",""
"10194","<p><b>Now, imagine that you clicked on the below button for another 10 trials (this includes <i> BOTH WIN and NO-WIN trials</i>).</p> <img src= 'imgNWTK/triangle.png'></img></br></br> <p><b>Please type the reward (number of points) you would expect to receive on every trial.</br> Click start to begin.</p>","0","html-button-response","72","2596505","0.0-12.0","female","18","Australia","98955","24703","imgNWTK/triangle.png","imgNWTK/square.png","imgNWTK/triangle.png","imgNWTK/square.png","noninfo","optim","3.49","","","","","","","","","","","","","",""
"8416.099999904633","","","survey-number","73","2604928","0.0-13.0-0.0","female","18","Australia","98955","24703","imgNWTK/triangle.png","imgNWTK/square.png","imgNWTK/triangle.png","imgNWTK/square.png","noninfo","optim","3.49","{""undefined"":""60""}","","","","","","","","","","","","imgNWTK/triangle.png",""
"10038.700000047684","","","survey-number","74","2614977","0.0-13.0-0.1","female","18","Australia","98955","24703","imgNWTK/triangle.png","imgNWTK/square.png","imgNWTK/triangle.png","imgNWTK/square.png","noninfo","optim","3.49","{""undefined"":""0""}","","","","","","","","","","","","imgNWTK/triangle.png",""
"2036.7999999523163","","","survey-number","75","2617019","0.0-13.0-0.2","female","18","Australia","98955","24703","imgNWTK/triangle.png","imgNWTK/square.png","imgNWTK/triangle.png","imgNWTK/square.png","noninfo","optim","3.49","{""undefined"":""60""}","","","","","","","","","","","","imgNWTK/triangle.png",""
"959.8000001907349","","","survey-number","76","2617984","0.0-13.0-0.3","female","18","Australia","98955","24703","imgNWTK/triangle.png","imgNWTK/square.png","imgNWTK/triangle.png","imgNWTK/square.png","noninfo","optim","3.49","{""undefined"":""0""}","","","","","","","","","","","","imgNWTK/triangle.png",""
"815.7000000476837","","","survey-number","77","2618804","0.0-13.0-0.4","female","18","Australia","98955","24703","imgNWTK/triangle.png","imgNWTK/square.png","imgNWTK/triangle.png","imgNWTK/square.png","noninfo","optim","3.49","{""undefined"":""0""}","","","","","","","","","","","","imgNWTK/triangle.png",""
"1052","","","survey-number","78","2619861","0.0-13.0-0.5","female","18","Australia","98955","24703","imgNWTK/triangle.png","imgNWTK/square.png","imgNWTK/triangle.png","imgNWTK/square.png","noninfo","optim","3.49","{""undefined"":""0""}","","","","","","","","","","","","imgNWTK/triangle.png",""
"1001.0999999046326","","","survey-number","79","2620867","0.0-13.0-0.6","female","18","Australia","98955","24703","imgNWTK/triangle.png","imgNWTK/square.png","imgNWTK/triangle.png","imgNWTK/square.png","noninfo","optim","3.49","{""undefined"":""60""}","","","","","","","","","","","","imgNWTK/triangle.png",""
"899","","","survey-number","80","2621770","0.0-13.0-0.7","female","18","Australia","98955","24703","imgNWTK/triangle.png","imgNWTK/square.png","imgNWTK/triangle.png","imgNWTK/square.png","noninfo","optim","3.49","{""undefined"":""60""}","","","","","","","","","","","","imgNWTK/triangle.png",""
"1133.7999999523163","","","survey-number","81","2622909","0.0-13.0-0.8","female","18","Australia","98955","24703","imgNWTK/triangle.png","imgNWTK/square.png","imgNWTK/triangle.png","imgNWTK/square.png","noninfo","optim","3.49","{""undefined"":""60""}","","","","","","","","","","","","imgNWTK/triangle.png",""
"1061.3000001907349","","","survey-number","82","2623974","0.0-13.0-0.9","female","18","Australia","98955","24703","imgNWTK/triangle.png","imgNWTK/square.png","imgNWTK/triangle.png","imgNWTK/square.png","noninfo","optim","3.49","{""undefined"":""60""}","","","","","","","","","","","","imgNWTK/triangle.png",""
"1397","<p><b>Imagine that you clicked on the below button for another 10 trials (this includes <i> both WIN and NO-WIN trials</i>).</p> <img src= 'imgNWTK/square.png'></img></br></br> <p><b>Please type the reward (number of points) you would expect to receive on every trial.</br> Click start to begin.</p>","0","html-button-response","83","2625374","0.0-14.0","female","18","Australia","98955","24703","imgNWTK/triangle.png","imgNWTK/square.png","imgNWTK/triangle.png","imgNWTK/square.png","noninfo","optim","3.49","","","","","","","","","","","","","",""
"1897.2999999523163","","","survey-number","84","2627282","0.0-15.0-0.0","female","18","Australia","98955","24703","imgNWTK/triangle.png","imgNWTK/square.png","imgNWTK/triangle.png","imgNWTK/square.png","noninfo","optim","3.49","{""undefined"":""170""}","","","","","","","","","","","","imgNWTK/square.png",""
"653.3999998569489","","","survey-number","85","2627940","0.0-15.0-0.1","female","18","Australia","98955","24703","imgNWTK/triangle.png","imgNWTK/square.png","imgNWTK/triangle.png","imgNWTK/square.png","noninfo","optim","3.49","{""undefined"":""0""}","","","","","","","","","","","","imgNWTK/square.png",""
"717.2000000476837","","","survey-number","86","2628663","0.0-15.0-0.2","female","18","Australia","98955","24703","imgNWTK/triangle.png","imgNWTK/square.png","imgNWTK/triangle.png","imgNWTK/square.png","noninfo","optim","3.49","{""undefined"":""0""}","","","","","","","","","","","","imgNWTK/square.png",""
"616.1999998092651","","","survey-number","87","2629284","0.0-15.0-0.3","female","18","Australia","98955","24703","imgNWTK/triangle.png","imgNWTK/square.png","imgNWTK/triangle.png","imgNWTK/square.png","noninfo","optim","3.49","{""undefined"":""0""}","","","","","","","","","","","","imgNWTK/square.png",""
"1813.4000000953674","","","survey-number","88","2631102","0.0-15.0-0.4","female","18","Australia","98955","24703","imgNWTK/triangle.png","imgNWTK/square.png","imgNWTK/triangle.png","imgNWTK/square.png","noninfo","optim","3.49","{""undefined"":""170""}","","","","","","","","","","","","imgNWTK/square.png",""
"2099.0999999046326","","","survey-number","89","2633205","0.0-15.0-0.5","female","18","Australia","98955","24703","imgNWTK/triangle.png","imgNWTK/square.png","imgNWTK/triangle.png","imgNWTK/square.png","noninfo","optim","3.49","{""undefined"":""130""}","","","","","","","","","","","","imgNWTK/square.png",""
"4018","","","survey-number","90","2637227","0.0-15.0-0.6","female","18","Australia","98955","24703","imgNWTK/triangle.png","imgNWTK/square.png","imgNWTK/triangle.png","imgNWTK/square.png","noninfo","optim","3.49","{""undefined"":""115""}","","","","","","","","","","","","imgNWTK/square.png",""
"1437.5","","","survey-number","91","2638670","0.0-15.0-0.7","female","18","Australia","98955","24703","imgNWTK/triangle.png","imgNWTK/square.png","imgNWTK/triangle.png","imgNWTK/square.png","noninfo","optim","3.49","{""undefined"":""0""}","","","","","","","","","","","","imgNWTK/square.png",""
"907.4000000953674","","","survey-number","92","2639581","0.0-15.0-0.8","female","18","Australia","98955","24703","imgNWTK/triangle.png","imgNWTK/square.png","imgNWTK/triangle.png","imgNWTK/square.png","noninfo","optim","3.49","{""undefined"":""160""}","","","","","","","","","","","","imgNWTK/square.png",""
"2438.7000000476837","","","survey-number","93","2642025","0.0-15.0-0.9","female","18","Australia","98955","24703","imgNWTK/triangle.png","imgNWTK/square.png","imgNWTK/triangle.png","imgNWTK/square.png","noninfo","optim","3.49","{""undefined"":""160""}","","","","","","","","","","","","imgNWTK/square.png",""
"24337.200000047684","","","survey-number","94","2666379","0.0-16.0","female","18","Australia","98955","24703","imgNWTK/triangle.png","imgNWTK/square.png","imgNWTK/triangle.png","imgNWTK/square.png","noninfo","optim","3.49","{""undefined"":""60""}","","","","","","","","","","","","","imgNWTK/triangle.png"
"3093.0999999046326","","","survey-number","95","2669477","0.0-17.0","female","18","Australia","98955","24703","imgNWTK/triangle.png","imgNWTK/square.png","imgNWTK/triangle.png","imgNWTK/square.png","noninfo","optim","3.49","{""undefined"":""170""}","","","","","","","","","","","","","imgNWTK/square.png"
"21669","<p style=""text-align:left;"">Great! We are almost at the end of the study... (Please do not close the browser window yet.)</p><p> Your final points balance is 3491, which equals to a bonus payment of $3.49. Please collect your payment from Mathews Building Room 721 (Mon-Fri 9am-5pm); please email amy.x.li@unsw.edu.au at least 24 hours prior to collection so that this is ready for you.</p><p style=""text-align:left;"">To view the debriefing form, please click <a href=""./imgNWTK/debrief_3205.pdf"" target=""_blank"">here</a> to download a copy.</p><p style=""text-align:left;"">Then, <b>please click the below button</b> to confirm that you have received your debrief and to complete the study. Upon clicking ""Finish!"", your SONA credit will be automatically assigned.</p>","0","html-button-response","96","2691148","0.0-18.0","female","18","Australia","98955","24703","imgNWTK/triangle.png","imgNWTK/square.png","imgNWTK/triangle.png","imgNWTK/square.png","noninfo","optim","3.49","","","","","","","","","","","","","",""
