"rt","stimulus","button_pressed","trial_type","trial_index","time_elapsed","internal_node_id","gender","age","language","PID","sona_id","subStim","optStim","stim1","stim2","infoCond","optimCond","bonus","responses","banditTrial","choice","cue","feedback","estimateData","leftOption","rightOption","choiceName","leftInput","rightInput","key_press","postQ","singleEst"
"1237","<p>Thank you for signing up to participate in SONA Study 465! <br> During this study, please focus on the experiment and refrain from activities such as:</p>- <b>Switching to other tabs on your browser (this will be monitored via the experiment)</br> - Using your mobile phone/cell phone</br> - Communicating with others</br></br></b><p>This way, you are helping to provide data that is useful for psychological research. We thank you for your cooperation!</p>","0","html-button-response","0","1241","0.0-0.0","female","20","China","51427","26573","imgNWTK/KeepItSecret.jpg","imgNWTK/FindOutNow.jpg","imgNWTK/KeepItSecret.jpg","imgNWTK/FindOutNow.jpg","info","sub","2.41","","","","","","","","","","","","","",""
"703","<p>Welcome to the experiment!</p><p>You will now read some instructions about the task. Press the 'Next' button to continue. </p>","0","html-button-response","1","1947","0.0-1.0","female","20","China","51427","26573","imgNWTK/KeepItSecret.jpg","imgNWTK/FindOutNow.jpg","imgNWTK/KeepItSecret.jpg","imgNWTK/FindOutNow.jpg","info","sub","2.41","","","","","","","","","","","","","",""
"11145","<p> On each trial throughout the experiment you will choose between the options </br><b> Find Out Now </b> and <b> Keep It Secret </b>, as shown below.</p><div><div style= 'float: left; width: 300px; margin: 10px 10px;'><img src= 'imgNWTK/KeepItSecret.jpg'></img></div><div style= 'float: right; width: 300px; margin: 10px 10px;'><img src= 'imgNWTK/FindOutNow.jpg'></img></div></div><br/><br/><br/><br/><br/><br/><br/><br/><br/><br/><br/><p>Each option results in winning points or receiving 0 points.</br>There is a 50% chance of either winning or receiving 0 points.</p><p>You won't receive the outcome until after a <b> 20 second delay</b>. However, selecting the Find Out Now option will allow you to find out about the outcome early, whereas the Keep It Secret option will not. </p>","0","html-button-response","2","13095","0.0-2.0-0.0","female","20","China","51427","26573","imgNWTK/KeepItSecret.jpg","imgNWTK/FindOutNow.jpg","imgNWTK/KeepItSecret.jpg","imgNWTK/FindOutNow.jpg","info","sub","2.41","","","","","","","","","","","","","",""
"16955","<img src= 'cues/Experiment6.png'></img><p>As seen above, when choosing the <b>'Find Out Now'</b> option, you will receive either a happy face or sad face.</br>The happy face means you will win points after the delay, whereas the sad face means you will receive 0 points.</br></p><p> When choosing the <b> 'Keep it Secret' </b> option you will receive a confused face.</br> This face appears regardless of whether you are going to win points or not. </p>In short, choosing 'Find Out Now' allows you to find out the outcome before you experience it (after the delay).</br></br>","0","html-button-response","3","30052","0.0-2.0-1.0","female","20","China","51427","26573","imgNWTK/KeepItSecret.jpg","imgNWTK/FindOutNow.jpg","imgNWTK/KeepItSecret.jpg","imgNWTK/FindOutNow.jpg","info","sub","2.41","","","","","","","","","","","","","",""
"1785","<img src= 'cues/winTrials_info.png' width = '1200'></img><p>To reiterate, 50% of the outcomes of each option will be WIN TRIALS, and the other 50% will be NO-WIN TRIALS.","0","html-button-response","4","31839","0.0-2.0-2.0","female","20","China","51427","26573","imgNWTK/KeepItSecret.jpg","imgNWTK/FindOutNow.jpg","imgNWTK/KeepItSecret.jpg","imgNWTK/FindOutNow.jpg","info","sub","2.41","","","","","","","","","","","","","",""
"15817","<p> There will be <b>four blocks</b> in the experiment.</br>You will be given a short 15 second break between each block.</p><p><b>The points and the options will remain the same between the blocks.</b></p>The blocks are there just to give you a small break.</br></br><p>The points you earn in the task are also equal to <b> actual money</b>.</br> <b>1000 points is equal to $1.</b></p><p>This is the rate you will be paid at the experiment's end.","0","html-button-response","5","47659","0.0-2.0-3.0","female","20","China","51427","26573","imgNWTK/KeepItSecret.jpg","imgNWTK/FindOutNow.jpg","imgNWTK/KeepItSecret.jpg","imgNWTK/FindOutNow.jpg","info","sub","2.41","","","","","","","","","","","","","",""
"9404","","","survey-multi-choice","6","57071","0.0-2.0-4.0","female","20","China","51427","26573","imgNWTK/KeepItSecret.jpg","imgNWTK/FindOutNow.jpg","imgNWTK/KeepItSecret.jpg","imgNWTK/FindOutNow.jpg","info","sub","2.41","{""Q0"":""20 Seconds"",""Q1"":""True"",""Q2"":""Differently"",""Q3"":""True""}","","","","","","","","","","","","",""
"1519","Unfortunately, at least one of your answers was incorrect. Let's read the instructions again.<p> ","0","html-button-response","7","58593","0.0-2.0-5.0-0.0","female","20","China","51427","26573","imgNWTK/KeepItSecret.jpg","imgNWTK/FindOutNow.jpg","imgNWTK/KeepItSecret.jpg","imgNWTK/FindOutNow.jpg","info","sub","2.41","","","","","","","","","","","","","",""
"1954","<p> On each trial throughout the experiment you will choose between the options </br><b> Find Out Now </b> and <b> Keep It Secret </b>, as shown below.</p><div><div style= 'float: left; width: 300px; margin: 10px 10px;'><img src= 'imgNWTK/KeepItSecret.jpg'></img></div><div style= 'float: right; width: 300px; margin: 10px 10px;'><img src= 'imgNWTK/FindOutNow.jpg'></img></div></div><br/><br/><br/><br/><br/><br/><br/><br/><br/><br/><br/><p>Each option results in winning points or receiving 0 points.</br>There is a 50% chance of either winning or receiving 0 points.</p><p>You won't receive the outcome until after a <b> 20 second delay</b>. However, selecting the Find Out Now option will allow you to find out about the outcome early, whereas the Keep It Secret option will not. </p>","0","html-button-response","8","60550","0.0-2.1-0.1","female","20","China","51427","26573","imgNWTK/KeepItSecret.jpg","imgNWTK/FindOutNow.jpg","imgNWTK/KeepItSecret.jpg","imgNWTK/FindOutNow.jpg","info","sub","2.41","","","","","","","","","","","","","",""
"2232","<img src= 'cues/Experiment6.png'></img><p>As seen above, when choosing the <b>'Find Out Now'</b> option, you will receive either a happy face or sad face.</br>The happy face means you will win points after the delay, whereas the sad face means you will receive 0 points.</br></p><p> When choosing the <b> 'Keep it Secret' </b> option you will receive a confused face.</br> This face appears regardless of whether you are going to win points or not. </p>In short, choosing 'Find Out Now' allows you to find out the outcome before you experience it (after the delay).</br></br>","0","html-button-response","9","62784","0.0-2.1-1.1","female","20","China","51427","26573","imgNWTK/KeepItSecret.jpg","imgNWTK/FindOutNow.jpg","imgNWTK/KeepItSecret.jpg","imgNWTK/FindOutNow.jpg","info","sub","2.41","","","","","","","","","","","","","",""
"1643","<img src= 'cues/winTrials_info.png' width = '1200'></img><p>To reiterate, 50% of the outcomes of each option will be WIN TRIALS, and the other 50% will be NO-WIN TRIALS.","0","html-button-response","10","64429","0.0-2.1-2.1","female","20","China","51427","26573","imgNWTK/KeepItSecret.jpg","imgNWTK/FindOutNow.jpg","imgNWTK/KeepItSecret.jpg","imgNWTK/FindOutNow.jpg","info","sub","2.41","","","","","","","","","","","","","",""
"1885","<p> There will be <b>four blocks</b> in the experiment.</br>You will be given a short 15 second break between each block.</p><p><b>The points and the options will remain the same between the blocks.</b></p>The blocks are there just to give you a small break.</br></br><p>The points you earn in the task are also equal to <b> actual money</b>.</br> <b>1000 points is equal to $1.</b></p><p>This is the rate you will be paid at the experiment's end.","0","html-button-response","11","66316","0.0-2.1-3.1","female","20","China","51427","26573","imgNWTK/KeepItSecret.jpg","imgNWTK/FindOutNow.jpg","imgNWTK/KeepItSecret.jpg","imgNWTK/FindOutNow.jpg","info","sub","2.41","","","","","","","","","","","","","",""
"14640","","","survey-multi-choice","12","80963","0.0-2.1-4.1","female","20","China","51427","26573","imgNWTK/KeepItSecret.jpg","imgNWTK/FindOutNow.jpg","imgNWTK/KeepItSecret.jpg","imgNWTK/FindOutNow.jpg","info","sub","2.41","{""Q0"":""20 Seconds"",""Q1"":""True"",""Q2"":""Equally"",""Q3"":""True""}","","","","","","","","","","","","",""
"3542","<p> Well done, all your answers were correct! <br> The experiment is about to start now. <br/> Click start to continue, or email your researcher <b>(amy.x.li@unsw.edu.au)</b> if you have any questions before starting.","0","html-button-response","13","84508","0.0-3.0","female","20","China","51427","26573","imgNWTK/KeepItSecret.jpg","imgNWTK/FindOutNow.jpg","imgNWTK/KeepItSecret.jpg","imgNWTK/FindOutNow.jpg","info","sub","2.41","","","","","","","","","","","","","",""
"1349","","","bandit-task-exp6","14","88779","0.0-4.0-0.0","female","20","China","51427","26573","imgNWTK/KeepItSecret.jpg","imgNWTK/FindOutNow.jpg","imgNWTK/KeepItSecret.jpg","imgNWTK/FindOutNow.jpg","info","sub","2.41","","1","2","1","0","null","imgNWTK/KeepItSecret.jpg","imgNWTK/FindOutNow.jpg","imgNWTK/FindOutNow.jpg","NaN","NaN","","",""
"1689","","","bandit-task-exp6","15","93186","0.0-4.0-0.1","female","20","China","51427","26573","imgNWTK/KeepItSecret.jpg","imgNWTK/FindOutNow.jpg","imgNWTK/KeepItSecret.jpg","imgNWTK/FindOutNow.jpg","info","sub","2.41","","2","2","2","70","null","imgNWTK/KeepItSecret.jpg","imgNWTK/FindOutNow.jpg","imgNWTK/FindOutNow.jpg","NaN","NaN","","",""
"865","","","bandit-task-exp6","16","97914","0.0-4.0-0.2","female","20","China","51427","26573","imgNWTK/KeepItSecret.jpg","imgNWTK/FindOutNow.jpg","imgNWTK/KeepItSecret.jpg","imgNWTK/FindOutNow.jpg","info","sub","2.41","","3","1","2","0","null","imgNWTK/FindOutNow.jpg","imgNWTK/KeepItSecret.jpg","imgNWTK/KeepItSecret.jpg","NaN","NaN","","",""
"940","","","bandit-task-exp6","17","101516","0.0-4.0-0.3","female","20","China","51427","26573","imgNWTK/KeepItSecret.jpg","imgNWTK/FindOutNow.jpg","imgNWTK/KeepItSecret.jpg","imgNWTK/FindOutNow.jpg","info","sub","2.41","","4","2","2","83","null","imgNWTK/KeepItSecret.jpg","imgNWTK/FindOutNow.jpg","imgNWTK/FindOutNow.jpg","NaN","NaN","","",""
"699","","","bandit-task-exp6","18","104999","0.0-4.0-0.4","female","20","China","51427","26573","imgNWTK/KeepItSecret.jpg","imgNWTK/FindOutNow.jpg","imgNWTK/KeepItSecret.jpg","imgNWTK/FindOutNow.jpg","info","sub","2.41","","5","1","1","122","null","imgNWTK/FindOutNow.jpg","imgNWTK/KeepItSecret.jpg","imgNWTK/KeepItSecret.jpg","NaN","NaN","","",""
"457","","","bandit-task-exp6","19","108681","0.0-4.0-0.5","female","20","China","51427","26573","imgNWTK/KeepItSecret.jpg","imgNWTK/FindOutNow.jpg","imgNWTK/KeepItSecret.jpg","imgNWTK/FindOutNow.jpg","info","sub","2.41","","6","1","2","0","null","imgNWTK/FindOutNow.jpg","imgNWTK/KeepItSecret.jpg","imgNWTK/KeepItSecret.jpg","NaN","NaN","","",""
"538","","","bandit-task-exp6","20","111695","0.0-4.0-0.6","female","20","China","51427","26573","imgNWTK/KeepItSecret.jpg","imgNWTK/FindOutNow.jpg","imgNWTK/KeepItSecret.jpg","imgNWTK/FindOutNow.jpg","info","sub","2.41","","7","1","2","0","null","imgNWTK/FindOutNow.jpg","imgNWTK/KeepItSecret.jpg","imgNWTK/KeepItSecret.jpg","NaN","NaN","","",""
"467","","","bandit-task-exp6","21","114702","0.0-4.0-0.7","female","20","China","51427","26573","imgNWTK/KeepItSecret.jpg","imgNWTK/FindOutNow.jpg","imgNWTK/KeepItSecret.jpg","imgNWTK/FindOutNow.jpg","info","sub","2.41","","8","1","1","121","null","imgNWTK/KeepItSecret.jpg","imgNWTK/FindOutNow.jpg","imgNWTK/KeepItSecret.jpg","NaN","NaN","","",""
"759","","","bandit-task-exp6","22","117966","0.0-4.0-0.8","female","20","China","51427","26573","imgNWTK/KeepItSecret.jpg","imgNWTK/FindOutNow.jpg","imgNWTK/KeepItSecret.jpg","imgNWTK/FindOutNow.jpg","info","sub","2.41","","9","2","1","0","null","imgNWTK/KeepItSecret.jpg","imgNWTK/FindOutNow.jpg","imgNWTK/FindOutNow.jpg","NaN","NaN","","",""
"485","","","bandit-task-exp6","23","120824","0.0-4.0-0.9","female","20","China","51427","26573","imgNWTK/KeepItSecret.jpg","imgNWTK/FindOutNow.jpg","imgNWTK/KeepItSecret.jpg","imgNWTK/FindOutNow.jpg","info","sub","2.41","","10","2","1","0","null","imgNWTK/FindOutNow.jpg","imgNWTK/KeepItSecret.jpg","imgNWTK/FindOutNow.jpg","NaN","NaN","","",""
"1070","","","bandit-task-exp6","24","124251","0.0-4.0-0.10","female","20","China","51427","26573","imgNWTK/KeepItSecret.jpg","imgNWTK/FindOutNow.jpg","imgNWTK/KeepItSecret.jpg","imgNWTK/FindOutNow.jpg","info","sub","2.41","","11","1","1","124","null","imgNWTK/FindOutNow.jpg","imgNWTK/KeepItSecret.jpg","imgNWTK/KeepItSecret.jpg","NaN","NaN","","",""
"582","","","bandit-task-exp6","25","127192","0.0-4.0-0.11","female","20","China","51427","26573","imgNWTK/KeepItSecret.jpg","imgNWTK/FindOutNow.jpg","imgNWTK/KeepItSecret.jpg","imgNWTK/FindOutNow.jpg","info","sub","2.41","","12","1","1","126","null","imgNWTK/FindOutNow.jpg","imgNWTK/KeepItSecret.jpg","imgNWTK/KeepItSecret.jpg","NaN","NaN","","",""
"1016","","","bandit-task-exp6","26","130800","0.0-4.0-0.12","female","20","China","51427","26573","imgNWTK/KeepItSecret.jpg","imgNWTK/FindOutNow.jpg","imgNWTK/KeepItSecret.jpg","imgNWTK/FindOutNow.jpg","info","sub","2.41","","13","1","2","0","null","imgNWTK/KeepItSecret.jpg","imgNWTK/FindOutNow.jpg","imgNWTK/KeepItSecret.jpg","NaN","NaN","","",""
"605","","","bandit-task-exp6","27","133807","0.0-4.0-0.13","female","20","China","51427","26573","imgNWTK/KeepItSecret.jpg","imgNWTK/FindOutNow.jpg","imgNWTK/KeepItSecret.jpg","imgNWTK/FindOutNow.jpg","info","sub","2.41","","14","2","1","0","null","imgNWTK/KeepItSecret.jpg","imgNWTK/FindOutNow.jpg","imgNWTK/FindOutNow.jpg","NaN","NaN","","",""
"403","","","bandit-task-exp6","28","139388","0.0-4.0-0.14","female","20","China","51427","26573","imgNWTK/KeepItSecret.jpg","imgNWTK/FindOutNow.jpg","imgNWTK/KeepItSecret.jpg","imgNWTK/FindOutNow.jpg","info","sub","2.41","","15","1","1","129","null","imgNWTK/FindOutNow.jpg","imgNWTK/KeepItSecret.jpg","imgNWTK/KeepItSecret.jpg","NaN","NaN","","",""
"null","<p><b> Congratulations, you have finished this block. </b> </p><p>Please take a short break before moving onto the next block.</p><p>The next block will start after a 15 second break.</p><b>Remember, the point rewards are the same between blocks","","html-keyboard-response","29","154390","0.0-5.0","female","20","China","51427","26573","imgNWTK/KeepItSecret.jpg","imgNWTK/FindOutNow.jpg","imgNWTK/KeepItSecret.jpg","imgNWTK/FindOutNow.jpg","info","sub","2.41","","","","","","","","","","","","null","",""
"85","","","bandit-task-exp6","30","157432","0.0-6.0-0.0","female","20","China","51427","26573","imgNWTK/KeepItSecret.jpg","imgNWTK/FindOutNow.jpg","imgNWTK/KeepItSecret.jpg","imgNWTK/FindOutNow.jpg","info","sub","2.41","","16","2","1","0","null","imgNWTK/FindOutNow.jpg","imgNWTK/KeepItSecret.jpg","imgNWTK/FindOutNow.jpg","NaN","NaN","","",""
"350","","","bandit-task-exp6","31","160142","0.0-6.0-0.1","female","20","China","51427","26573","imgNWTK/KeepItSecret.jpg","imgNWTK/FindOutNow.jpg","imgNWTK/KeepItSecret.jpg","imgNWTK/FindOutNow.jpg","info","sub","2.41","","17","1","1","130","null","imgNWTK/FindOutNow.jpg","imgNWTK/KeepItSecret.jpg","imgNWTK/KeepItSecret.jpg","NaN","NaN","","",""
"338","","","bandit-task-exp6","32","162896","0.0-6.0-0.2","female","20","China","51427","26573","imgNWTK/KeepItSecret.jpg","imgNWTK/FindOutNow.jpg","imgNWTK/KeepItSecret.jpg","imgNWTK/FindOutNow.jpg","info","sub","2.41","","18","2","2","82","null","imgNWTK/KeepItSecret.jpg","imgNWTK/FindOutNow.jpg","imgNWTK/FindOutNow.jpg","NaN","NaN","","",""
"335","","","bandit-task-exp6","33","165617","0.0-6.0-0.3","female","20","China","51427","26573","imgNWTK/KeepItSecret.jpg","imgNWTK/FindOutNow.jpg","imgNWTK/KeepItSecret.jpg","imgNWTK/FindOutNow.jpg","info","sub","2.41","","19","1","2","0","null","imgNWTK/FindOutNow.jpg","imgNWTK/KeepItSecret.jpg","imgNWTK/KeepItSecret.jpg","NaN","NaN","","",""
"354","","","bandit-task-exp6","34","170212","0.0-6.0-0.4","female","20","China","51427","26573","imgNWTK/KeepItSecret.jpg","imgNWTK/FindOutNow.jpg","imgNWTK/KeepItSecret.jpg","imgNWTK/FindOutNow.jpg","info","sub","2.41","","20","1","1","121","null","imgNWTK/FindOutNow.jpg","imgNWTK/KeepItSecret.jpg","imgNWTK/KeepItSecret.jpg","NaN","NaN","","",""
"1254","","","bandit-task-exp6","35","173983","0.0-6.0-0.5","female","20","China","51427","26573","imgNWTK/KeepItSecret.jpg","imgNWTK/FindOutNow.jpg","imgNWTK/KeepItSecret.jpg","imgNWTK/FindOutNow.jpg","info","sub","2.41","","21","2","2","78","null","imgNWTK/KeepItSecret.jpg","imgNWTK/FindOutNow.jpg","imgNWTK/FindOutNow.jpg","NaN","NaN","","",""
"432","","","bandit-task-exp6","36","176925","0.0-6.0-0.6","female","20","China","51427","26573","imgNWTK/KeepItSecret.jpg","imgNWTK/FindOutNow.jpg","imgNWTK/KeepItSecret.jpg","imgNWTK/FindOutNow.jpg","info","sub","2.41","","22","2","2","73","null","imgNWTK/KeepItSecret.jpg","imgNWTK/FindOutNow.jpg","imgNWTK/FindOutNow.jpg","NaN","NaN","","",""
"356","","","bandit-task-exp6","37","179642","0.0-6.0-0.7","female","20","China","51427","26573","imgNWTK/KeepItSecret.jpg","imgNWTK/FindOutNow.jpg","imgNWTK/KeepItSecret.jpg","imgNWTK/FindOutNow.jpg","info","sub","2.41","","23","1","2","0","null","imgNWTK/FindOutNow.jpg","imgNWTK/KeepItSecret.jpg","imgNWTK/KeepItSecret.jpg","NaN","NaN","","",""
"374","","","bandit-task-exp6","38","182557","0.0-6.0-0.8","female","20","China","51427","26573","imgNWTK/KeepItSecret.jpg","imgNWTK/FindOutNow.jpg","imgNWTK/KeepItSecret.jpg","imgNWTK/FindOutNow.jpg","info","sub","2.41","","24","2","1","0","null","imgNWTK/KeepItSecret.jpg","imgNWTK/FindOutNow.jpg","imgNWTK/FindOutNow.jpg","NaN","NaN","","",""
"398","","","bandit-task-exp6","39","185598","0.0-6.0-0.9","female","20","China","51427","26573","imgNWTK/KeepItSecret.jpg","imgNWTK/FindOutNow.jpg","imgNWTK/KeepItSecret.jpg","imgNWTK/FindOutNow.jpg","info","sub","2.41","","25","2","1","0","null","imgNWTK/KeepItSecret.jpg","imgNWTK/FindOutNow.jpg","imgNWTK/FindOutNow.jpg","NaN","NaN","","",""
"477","","","bandit-task-exp6","40","189367","0.0-6.0-0.10","female","20","China","51427","26573","imgNWTK/KeepItSecret.jpg","imgNWTK/FindOutNow.jpg","imgNWTK/KeepItSecret.jpg","imgNWTK/FindOutNow.jpg","info","sub","2.41","","26","2","2","84","null","imgNWTK/FindOutNow.jpg","imgNWTK/KeepItSecret.jpg","imgNWTK/FindOutNow.jpg","NaN","NaN","","",""
"348","","","bandit-task-exp6","41","192377","0.0-6.0-0.11","female","20","China","51427","26573","imgNWTK/KeepItSecret.jpg","imgNWTK/FindOutNow.jpg","imgNWTK/KeepItSecret.jpg","imgNWTK/FindOutNow.jpg","info","sub","2.41","","27","1","2","0","null","imgNWTK/FindOutNow.jpg","imgNWTK/KeepItSecret.jpg","imgNWTK/KeepItSecret.jpg","NaN","NaN","","",""
"530","","","bandit-task-exp6","42","200190","0.0-6.0-0.12","female","20","China","51427","26573","imgNWTK/KeepItSecret.jpg","imgNWTK/FindOutNow.jpg","imgNWTK/KeepItSecret.jpg","imgNWTK/FindOutNow.jpg","info","sub","2.41","","28","1","2","0","null","imgNWTK/FindOutNow.jpg","imgNWTK/KeepItSecret.jpg","imgNWTK/KeepItSecret.jpg","NaN","NaN","","",""
"545","","","bandit-task-exp6","43","203411","0.0-6.0-0.13","female","20","China","51427","26573","imgNWTK/KeepItSecret.jpg","imgNWTK/FindOutNow.jpg","imgNWTK/KeepItSecret.jpg","imgNWTK/FindOutNow.jpg","info","sub","2.41","","29","2","2","74","null","imgNWTK/KeepItSecret.jpg","imgNWTK/FindOutNow.jpg","imgNWTK/FindOutNow.jpg","NaN","NaN","","",""
"831","","","bandit-task-exp6","44","206813","0.0-6.0-0.14","female","20","China","51427","26573","imgNWTK/KeepItSecret.jpg","imgNWTK/FindOutNow.jpg","imgNWTK/KeepItSecret.jpg","imgNWTK/FindOutNow.jpg","info","sub","2.41","","30","1","2","0","null","imgNWTK/FindOutNow.jpg","imgNWTK/KeepItSecret.jpg","imgNWTK/KeepItSecret.jpg","NaN","NaN","","",""
"null","<p><b> Congratulations, you have finished this block. </b> </p><p>Please take a short break before moving onto the next block.</p><p>The next block will start after a 15 second break.</p><b>Remember, the point rewards are the same between blocks","","html-keyboard-response","45","221817","0.0-7.0","female","20","China","51427","26573","imgNWTK/KeepItSecret.jpg","imgNWTK/FindOutNow.jpg","imgNWTK/KeepItSecret.jpg","imgNWTK/FindOutNow.jpg","info","sub","2.41","","","","","","","","","","","","null","",""
"3129","","","bandit-task-exp6","46","232582","0.0-8.0-0.0","female","20","China","51427","26573","imgNWTK/KeepItSecret.jpg","imgNWTK/FindOutNow.jpg","imgNWTK/KeepItSecret.jpg","imgNWTK/FindOutNow.jpg","info","sub","2.41","","31","2","1","0","null","imgNWTK/KeepItSecret.jpg","imgNWTK/FindOutNow.jpg","imgNWTK/FindOutNow.jpg","NaN","NaN","","",""
"1610","","","bandit-task-exp6","47","237615","0.0-8.0-0.1","female","20","China","51427","26573","imgNWTK/KeepItSecret.jpg","imgNWTK/FindOutNow.jpg","imgNWTK/KeepItSecret.jpg","imgNWTK/FindOutNow.jpg","info","sub","2.41","","32","2","2","73","null","imgNWTK/KeepItSecret.jpg","imgNWTK/FindOutNow.jpg","imgNWTK/FindOutNow.jpg","NaN","NaN","","",""
"452","","","bandit-task-exp6","48","241278","0.0-8.0-0.2","female","20","China","51427","26573","imgNWTK/KeepItSecret.jpg","imgNWTK/FindOutNow.jpg","imgNWTK/KeepItSecret.jpg","imgNWTK/FindOutNow.jpg","info","sub","2.41","","33","2","1","0","null","imgNWTK/KeepItSecret.jpg","imgNWTK/FindOutNow.jpg","imgNWTK/FindOutNow.jpg","NaN","NaN","","",""
"1266","","","bandit-task-exp6","49","244992","0.0-8.0-0.3","female","20","China","51427","26573","imgNWTK/KeepItSecret.jpg","imgNWTK/FindOutNow.jpg","imgNWTK/KeepItSecret.jpg","imgNWTK/FindOutNow.jpg","info","sub","2.41","","34","1","1","126","null","imgNWTK/FindOutNow.jpg","imgNWTK/KeepItSecret.jpg","imgNWTK/KeepItSecret.jpg","NaN","NaN","","",""
"362","","","bandit-task-exp6","50","248454","0.0-8.0-0.4","female","20","China","51427","26573","imgNWTK/KeepItSecret.jpg","imgNWTK/FindOutNow.jpg","imgNWTK/KeepItSecret.jpg","imgNWTK/FindOutNow.jpg","info","sub","2.41","","35","2","1","0","null","imgNWTK/KeepItSecret.jpg","imgNWTK/FindOutNow.jpg","imgNWTK/FindOutNow.jpg","NaN","NaN","","",""
"3711","","","bandit-task-exp6","51","257146","0.0-8.0-0.5","female","20","China","51427","26573","imgNWTK/KeepItSecret.jpg","imgNWTK/FindOutNow.jpg","imgNWTK/KeepItSecret.jpg","imgNWTK/FindOutNow.jpg","info","sub","2.41","","36","1","2","0","null","imgNWTK/FindOutNow.jpg","imgNWTK/KeepItSecret.jpg","imgNWTK/KeepItSecret.jpg","NaN","NaN","","",""
"490","","","bandit-task-exp6","52","260339","0.0-8.0-0.6","female","20","China","51427","26573","imgNWTK/KeepItSecret.jpg","imgNWTK/FindOutNow.jpg","imgNWTK/KeepItSecret.jpg","imgNWTK/FindOutNow.jpg","info","sub","2.41","","37","1","2","0","null","imgNWTK/FindOutNow.jpg","imgNWTK/KeepItSecret.jpg","imgNWTK/KeepItSecret.jpg","NaN","NaN","","",""
"451","","","bandit-task-exp6","53","263242","0.0-8.0-0.7","female","20","China","51427","26573","imgNWTK/KeepItSecret.jpg","imgNWTK/FindOutNow.jpg","imgNWTK/KeepItSecret.jpg","imgNWTK/FindOutNow.jpg","info","sub","2.41","","38","1","2","0","null","imgNWTK/FindOutNow.jpg","imgNWTK/KeepItSecret.jpg","imgNWTK/KeepItSecret.jpg","NaN","NaN","","",""
"509","","","bandit-task-exp6","54","266239","0.0-8.0-0.8","female","20","China","51427","26573","imgNWTK/KeepItSecret.jpg","imgNWTK/FindOutNow.jpg","imgNWTK/KeepItSecret.jpg","imgNWTK/FindOutNow.jpg","info","sub","2.41","","39","2","2","70","null","imgNWTK/KeepItSecret.jpg","imgNWTK/FindOutNow.jpg","imgNWTK/FindOutNow.jpg","NaN","NaN","","",""
"457","","","bandit-task-exp6","55","269053","0.0-8.0-0.9","female","20","China","51427","26573","imgNWTK/KeepItSecret.jpg","imgNWTK/FindOutNow.jpg","imgNWTK/KeepItSecret.jpg","imgNWTK/FindOutNow.jpg","info","sub","2.41","","40","2","1","0","null","imgNWTK/KeepItSecret.jpg","imgNWTK/FindOutNow.jpg","imgNWTK/FindOutNow.jpg","NaN","NaN","","",""
"355","","","bandit-task-exp6","56","272127","0.0-8.0-0.10","female","20","China","51427","26573","imgNWTK/KeepItSecret.jpg","imgNWTK/FindOutNow.jpg","imgNWTK/KeepItSecret.jpg","imgNWTK/FindOutNow.jpg","info","sub","2.41","","41","2","1","0","null","imgNWTK/KeepItSecret.jpg","imgNWTK/FindOutNow.jpg","imgNWTK/FindOutNow.jpg","NaN","NaN","","",""
"348","","","bandit-task-exp6","57","275145","0.0-8.0-0.11","female","20","China","51427","26573","imgNWTK/KeepItSecret.jpg","imgNWTK/FindOutNow.jpg","imgNWTK/KeepItSecret.jpg","imgNWTK/FindOutNow.jpg","info","sub","2.41","","42","2","1","0","null","imgNWTK/KeepItSecret.jpg","imgNWTK/FindOutNow.jpg","imgNWTK/FindOutNow.jpg","NaN","NaN","","",""
"401","","","bandit-task-exp6","58","277986","0.0-8.0-0.12","female","20","China","51427","26573","imgNWTK/KeepItSecret.jpg","imgNWTK/FindOutNow.jpg","imgNWTK/KeepItSecret.jpg","imgNWTK/FindOutNow.jpg","info","sub","2.41","","43","1","1","113","null","imgNWTK/KeepItSecret.jpg","imgNWTK/FindOutNow.jpg","imgNWTK/KeepItSecret.jpg","NaN","NaN","","",""
"1365","","","bandit-task-exp6","59","281993","0.0-8.0-0.13","female","20","China","51427","26573","imgNWTK/KeepItSecret.jpg","imgNWTK/FindOutNow.jpg","imgNWTK/KeepItSecret.jpg","imgNWTK/FindOutNow.jpg","info","sub","2.41","","44","2","2","90","null","imgNWTK/FindOutNow.jpg","imgNWTK/KeepItSecret.jpg","imgNWTK/FindOutNow.jpg","NaN","NaN","","",""
"484","","","bandit-task-exp6","60","285086","0.0-8.0-0.14","female","20","China","51427","26573","imgNWTK/KeepItSecret.jpg","imgNWTK/FindOutNow.jpg","imgNWTK/KeepItSecret.jpg","imgNWTK/FindOutNow.jpg","info","sub","2.41","","45","2","1","0","null","imgNWTK/FindOutNow.jpg","imgNWTK/KeepItSecret.jpg","imgNWTK/FindOutNow.jpg","NaN","NaN","","",""
"null","<p><b> Congratulations, you have finished this block. </b> </p><p>Please take a short break before moving onto the next block.</p><p>The next block will start after a 15 second break.</p><b>Remember, the point rewards are the same between blocks","","html-keyboard-response","61","300092","0.0-9.0","female","20","China","51427","26573","imgNWTK/KeepItSecret.jpg","imgNWTK/FindOutNow.jpg","imgNWTK/KeepItSecret.jpg","imgNWTK/FindOutNow.jpg","info","sub","2.41","","","","","","","","","","","","null","",""
"18501","","","bandit-task-exp6","62","321433","0.0-10.0-0.0","female","20","China","51427","26573","imgNWTK/KeepItSecret.jpg","imgNWTK/FindOutNow.jpg","imgNWTK/KeepItSecret.jpg","imgNWTK/FindOutNow.jpg","info","sub","2.41","","46","2","1","0","null","imgNWTK/FindOutNow.jpg","imgNWTK/KeepItSecret.jpg","imgNWTK/FindOutNow.jpg","118","0","","",""
"3005","","","bandit-task-exp6","63","327046","0.0-10.0-0.1","female","20","China","51427","26573","imgNWTK/KeepItSecret.jpg","imgNWTK/FindOutNow.jpg","imgNWTK/KeepItSecret.jpg","imgNWTK/FindOutNow.jpg","info","sub","2.41","","47","2","2","71","null","imgNWTK/KeepItSecret.jpg","imgNWTK/FindOutNow.jpg","imgNWTK/FindOutNow.jpg","0","0","","",""
"3273","","","bandit-task-exp6","64","333110","0.0-10.0-0.2","female","20","China","51427","26573","imgNWTK/KeepItSecret.jpg","imgNWTK/FindOutNow.jpg","imgNWTK/KeepItSecret.jpg","imgNWTK/FindOutNow.jpg","info","sub","2.41","","48","2","2","88","null","imgNWTK/KeepItSecret.jpg","imgNWTK/FindOutNow.jpg","imgNWTK/FindOutNow.jpg","70","0","","",""
"4166","","","bandit-task-exp6","65","339888","0.0-10.0-0.3","female","20","China","51427","26573","imgNWTK/KeepItSecret.jpg","imgNWTK/FindOutNow.jpg","imgNWTK/KeepItSecret.jpg","imgNWTK/FindOutNow.jpg","info","sub","2.41","","49","2","1","0","null","imgNWTK/KeepItSecret.jpg","imgNWTK/FindOutNow.jpg","imgNWTK/FindOutNow.jpg","89","0","","",""
"3601","","","bandit-task-exp6","66","347606","0.0-10.0-0.4","female","20","China","51427","26573","imgNWTK/KeepItSecret.jpg","imgNWTK/FindOutNow.jpg","imgNWTK/KeepItSecret.jpg","imgNWTK/FindOutNow.jpg","info","sub","2.41","","50","1","1","116","null","imgNWTK/FindOutNow.jpg","imgNWTK/KeepItSecret.jpg","imgNWTK/KeepItSecret.jpg","78","0","","",""
"4415","","","bandit-task-exp6","67","354859","0.0-10.0-0.5","female","20","China","51427","26573","imgNWTK/KeepItSecret.jpg","imgNWTK/FindOutNow.jpg","imgNWTK/KeepItSecret.jpg","imgNWTK/FindOutNow.jpg","info","sub","2.41","","51","1","2","0","null","imgNWTK/FindOutNow.jpg","imgNWTK/KeepItSecret.jpg","imgNWTK/KeepItSecret.jpg","0","89","","",""
"4433","","","bandit-task-exp6","68","362125","0.0-10.0-0.6","female","20","China","51427","26573","imgNWTK/KeepItSecret.jpg","imgNWTK/FindOutNow.jpg","imgNWTK/KeepItSecret.jpg","imgNWTK/FindOutNow.jpg","info","sub","2.41","","52","1","2","0","null","imgNWTK/FindOutNow.jpg","imgNWTK/KeepItSecret.jpg","imgNWTK/KeepItSecret.jpg","97","0","","",""
"3309","","","bandit-task-exp6","69","368300","0.0-10.0-0.7","female","20","China","51427","26573","imgNWTK/KeepItSecret.jpg","imgNWTK/FindOutNow.jpg","imgNWTK/KeepItSecret.jpg","imgNWTK/FindOutNow.jpg","info","sub","2.41","","53","1","1","112","null","imgNWTK/FindOutNow.jpg","imgNWTK/KeepItSecret.jpg","imgNWTK/KeepItSecret.jpg","87","0","","",""
"3404","","","bandit-task-exp6","70","374503","0.0-10.0-0.8","female","20","China","51427","26573","imgNWTK/KeepItSecret.jpg","imgNWTK/FindOutNow.jpg","imgNWTK/KeepItSecret.jpg","imgNWTK/FindOutNow.jpg","info","sub","2.41","","54","1","2","0","null","imgNWTK/FindOutNow.jpg","imgNWTK/KeepItSecret.jpg","imgNWTK/KeepItSecret.jpg","76","0","","",""
"3626","","","bandit-task-exp6","71","380865","0.0-10.0-0.9","female","20","China","51427","26573","imgNWTK/KeepItSecret.jpg","imgNWTK/FindOutNow.jpg","imgNWTK/KeepItSecret.jpg","imgNWTK/FindOutNow.jpg","info","sub","2.41","","55","2","1","0","null","imgNWTK/KeepItSecret.jpg","imgNWTK/FindOutNow.jpg","imgNWTK/FindOutNow.jpg","59","0","","",""
"4185","","","bandit-task-exp6","72","387786","0.0-10.0-0.10","female","20","China","51427","26573","imgNWTK/KeepItSecret.jpg","imgNWTK/FindOutNow.jpg","imgNWTK/KeepItSecret.jpg","imgNWTK/FindOutNow.jpg","info","sub","2.41","","56","1","2","0","null","imgNWTK/FindOutNow.jpg","imgNWTK/KeepItSecret.jpg","imgNWTK/KeepItSecret.jpg","88","0","","",""
"3004","","","bandit-task-exp6","73","393423","0.0-10.0-0.11","female","20","China","51427","26573","imgNWTK/KeepItSecret.jpg","imgNWTK/FindOutNow.jpg","imgNWTK/KeepItSecret.jpg","imgNWTK/FindOutNow.jpg","info","sub","2.41","","57","1","1","130","null","imgNWTK/FindOutNow.jpg","imgNWTK/KeepItSecret.jpg","imgNWTK/KeepItSecret.jpg","97","0","","",""
"4474","","","bandit-task-exp6","74","400681","0.0-10.0-0.12","female","20","China","51427","26573","imgNWTK/KeepItSecret.jpg","imgNWTK/FindOutNow.jpg","imgNWTK/KeepItSecret.jpg","imgNWTK/FindOutNow.jpg","info","sub","2.41","","58","1","2","0","null","imgNWTK/FindOutNow.jpg","imgNWTK/KeepItSecret.jpg","imgNWTK/KeepItSecret.jpg","210","0","","",""
"5378","","","bandit-task-exp6","75","408753","0.0-10.0-0.13","female","20","China","51427","26573","imgNWTK/KeepItSecret.jpg","imgNWTK/FindOutNow.jpg","imgNWTK/KeepItSecret.jpg","imgNWTK/FindOutNow.jpg","info","sub","2.41","","59","1","2","0","null","imgNWTK/FindOutNow.jpg","imgNWTK/KeepItSecret.jpg","imgNWTK/KeepItSecret.jpg","76","0","","",""
"2779","","","bandit-task-exp6","76","414326","0.0-10.0-0.14","female","20","China","51427","26573","imgNWTK/KeepItSecret.jpg","imgNWTK/FindOutNow.jpg","imgNWTK/KeepItSecret.jpg","imgNWTK/FindOutNow.jpg","info","sub","2.41","","60","2","1","0","null","imgNWTK/KeepItSecret.jpg","imgNWTK/FindOutNow.jpg","imgNWTK/FindOutNow.jpg","76","0","","",""
"4094","<p> Congratulations, you have finished the main part of the experiment. </p><p>Before you finish, we have a few short questions about the options and outcomes you saw in the task.</p>","0","html-button-response","77","418422","0.0-11.0","female","20","China","51427","26573","imgNWTK/KeepItSecret.jpg","imgNWTK/FindOutNow.jpg","imgNWTK/KeepItSecret.jpg","imgNWTK/FindOutNow.jpg","info","sub","2.41","","","","","","","","","","","","","",""
"6158","<p><b>Now, imagine that you clicked on the below button for another 10 trials (this includes <i> BOTH WIN and NO-WIN trials</i>).</p> <img src= 'imgNWTK/FindOutNow.jpg'></img></br></br> <p><b>Please type the reward (number of points) you would expect to receive on every trial.</br> Click start to begin.</p>","0","html-button-response","78","424583","0.0-12.0","female","20","China","51427","26573","imgNWTK/KeepItSecret.jpg","imgNWTK/FindOutNow.jpg","imgNWTK/KeepItSecret.jpg","imgNWTK/FindOutNow.jpg","info","sub","2.41","","","","","","","","","","","","","",""
"7145.79999999702","","","survey-number","79","431735","0.0-13.0-0.0","female","20","China","51427","26573","imgNWTK/KeepItSecret.jpg","imgNWTK/FindOutNow.jpg","imgNWTK/KeepItSecret.jpg","imgNWTK/FindOutNow.jpg","info","sub","2.41","{""undefined"":""78""}","","","","","","","","","","","","imgNWTK/FindOutNow.jpg",""
"1984.8000000044703","","","survey-number","80","433724","0.0-13.0-0.1","female","20","China","51427","26573","imgNWTK/KeepItSecret.jpg","imgNWTK/FindOutNow.jpg","imgNWTK/KeepItSecret.jpg","imgNWTK/FindOutNow.jpg","info","sub","2.41","{""undefined"":""68""}","","","","","","","","","","","","imgNWTK/FindOutNow.jpg",""
"2158.39999999851","","","survey-number","81","435886","0.0-13.0-0.2","female","20","China","51427","26573","imgNWTK/KeepItSecret.jpg","imgNWTK/FindOutNow.jpg","imgNWTK/KeepItSecret.jpg","imgNWTK/FindOutNow.jpg","info","sub","2.41","{""undefined"":""213""}","","","","","","","","","","","","imgNWTK/FindOutNow.jpg",""
"2749.5","","","survey-number","82","438640","0.0-13.0-0.3","female","20","China","51427","26573","imgNWTK/KeepItSecret.jpg","imgNWTK/FindOutNow.jpg","imgNWTK/KeepItSecret.jpg","imgNWTK/FindOutNow.jpg","info","sub","2.41","{""undefined"":""118""}","","","","","","","","","","","","imgNWTK/FindOutNow.jpg",""
"2462","","","survey-number","83","441106","0.0-13.0-0.4","female","20","China","51427","26573","imgNWTK/KeepItSecret.jpg","imgNWTK/FindOutNow.jpg","imgNWTK/KeepItSecret.jpg","imgNWTK/FindOutNow.jpg","info","sub","2.41","{""undefined"":""113""}","","","","","","","","","","","","imgNWTK/FindOutNow.jpg",""
"2131.7000000029802","","","survey-number","84","443241","0.0-13.0-0.5","female","20","China","51427","26573","imgNWTK/KeepItSecret.jpg","imgNWTK/FindOutNow.jpg","imgNWTK/KeepItSecret.jpg","imgNWTK/FindOutNow.jpg","info","sub","2.41","{""undefined"":""78""}","","","","","","","","","","","","imgNWTK/FindOutNow.jpg",""
"1971.1999999955297","","","survey-number","85","445216","0.0-13.0-0.6","female","20","China","51427","26573","imgNWTK/KeepItSecret.jpg","imgNWTK/FindOutNow.jpg","imgNWTK/KeepItSecret.jpg","imgNWTK/FindOutNow.jpg","info","sub","2.41","{""undefined"":""96""}","","","","","","","","","","","","imgNWTK/FindOutNow.jpg",""
"3626.89999999851","","","survey-number","86","448846","0.0-13.0-0.7","female","20","China","51427","26573","imgNWTK/KeepItSecret.jpg","imgNWTK/FindOutNow.jpg","imgNWTK/KeepItSecret.jpg","imgNWTK/FindOutNow.jpg","info","sub","2.41","{""undefined"":""92""}","","","","","","","","","","","","imgNWTK/FindOutNow.jpg",""
"1248.3000000044703","","","survey-number","87","450097","0.0-13.0-0.8","female","20","China","51427","26573","imgNWTK/KeepItSecret.jpg","imgNWTK/FindOutNow.jpg","imgNWTK/KeepItSecret.jpg","imgNWTK/FindOutNow.jpg","info","sub","2.41","{""undefined"":""113""}","","","","","","","","","","","","imgNWTK/FindOutNow.jpg",""
"2850.60000000149","","","survey-number","88","452951","0.0-13.0-0.9","female","20","China","51427","26573","imgNWTK/KeepItSecret.jpg","imgNWTK/FindOutNow.jpg","imgNWTK/KeepItSecret.jpg","imgNWTK/FindOutNow.jpg","info","sub","2.41","{""undefined"":""156""}","","","","","","","","","","","","imgNWTK/FindOutNow.jpg",""
"1267","<p><b>Imagine that you clicked on the below button for another 10 trials (this includes <i> both WIN and NO-WIN trials</i>).</p> <img src= 'imgNWTK/KeepItSecret.jpg'></img></br></br> <p><b>Please type the reward (number of points) you would expect to receive on every trial.</br> Click start to begin.</p>","0","html-button-response","89","454221","0.0-14.0","female","20","China","51427","26573","imgNWTK/KeepItSecret.jpg","imgNWTK/FindOutNow.jpg","imgNWTK/KeepItSecret.jpg","imgNWTK/FindOutNow.jpg","info","sub","2.41","","","","","","","","","","","","","",""
"1615.7000000029802","","","survey-number","90","455842","0.0-15.0-0.0","female","20","China","51427","26573","imgNWTK/KeepItSecret.jpg","imgNWTK/FindOutNow.jpg","imgNWTK/KeepItSecret.jpg","imgNWTK/FindOutNow.jpg","info","sub","2.41","{""undefined"":""0""}","","","","","","","","","","","","imgNWTK/KeepItSecret.jpg",""
"1354.5","","","survey-number","91","457200","0.0-15.0-0.1","female","20","China","51427","26573","imgNWTK/KeepItSecret.jpg","imgNWTK/FindOutNow.jpg","imgNWTK/KeepItSecret.jpg","imgNWTK/FindOutNow.jpg","info","sub","2.41","{""undefined"":""0""}","","","","","","","","","","","","imgNWTK/KeepItSecret.jpg",""
"704.8000000044703","","","survey-number","92","457907","0.0-15.0-0.2","female","20","China","51427","26573","imgNWTK/KeepItSecret.jpg","imgNWTK/FindOutNow.jpg","imgNWTK/KeepItSecret.jpg","imgNWTK/FindOutNow.jpg","info","sub","2.41","{""undefined"":""0""}","","","","","","","","","","","","imgNWTK/KeepItSecret.jpg",""
"609.5","","","survey-number","93","458519","0.0-15.0-0.3","female","20","China","51427","26573","imgNWTK/KeepItSecret.jpg","imgNWTK/FindOutNow.jpg","imgNWTK/KeepItSecret.jpg","imgNWTK/FindOutNow.jpg","info","sub","2.41","{""undefined"":""0""}","","","","","","","","","","","","imgNWTK/KeepItSecret.jpg",""
"588.8000000044703","","","survey-number","94","459111","0.0-15.0-0.4","female","20","China","51427","26573","imgNWTK/KeepItSecret.jpg","imgNWTK/FindOutNow.jpg","imgNWTK/KeepItSecret.jpg","imgNWTK/FindOutNow.jpg","info","sub","2.41","{""undefined"":""0""}","","","","","","","","","","","","imgNWTK/KeepItSecret.jpg",""
"1316.8999999985099","","","survey-number","95","460431","0.0-15.0-0.5","female","20","China","51427","26573","imgNWTK/KeepItSecret.jpg","imgNWTK/FindOutNow.jpg","imgNWTK/KeepItSecret.jpg","imgNWTK/FindOutNow.jpg","info","sub","2.41","{""undefined"":""0""}","","","","","","","","","","","","imgNWTK/KeepItSecret.jpg",""
"1224.5","","","survey-number","96","461659","0.0-15.0-0.6","female","20","China","51427","26573","imgNWTK/KeepItSecret.jpg","imgNWTK/FindOutNow.jpg","imgNWTK/KeepItSecret.jpg","imgNWTK/FindOutNow.jpg","info","sub","2.41","{""undefined"":""34""}","","","","","","","","","","","","imgNWTK/KeepItSecret.jpg",""
"1659.7999999970198","","","survey-number","97","463323","0.0-15.0-0.7","female","20","China","51427","26573","imgNWTK/KeepItSecret.jpg","imgNWTK/FindOutNow.jpg","imgNWTK/KeepItSecret.jpg","imgNWTK/FindOutNow.jpg","info","sub","2.41","{""undefined"":""87""}","","","","","","","","","","","","imgNWTK/KeepItSecret.jpg",""
"1127.1000000014901","","","survey-number","98","464454","0.0-15.0-0.8","female","20","China","51427","26573","imgNWTK/KeepItSecret.jpg","imgNWTK/FindOutNow.jpg","imgNWTK/KeepItSecret.jpg","imgNWTK/FindOutNow.jpg","info","sub","2.41","{""undefined"":""35""}","","","","","","","","","","","","imgNWTK/KeepItSecret.jpg",""
"1315.4000000059605","","","survey-number","99","465773","0.0-15.0-0.9","female","20","China","51427","26573","imgNWTK/KeepItSecret.jpg","imgNWTK/FindOutNow.jpg","imgNWTK/KeepItSecret.jpg","imgNWTK/FindOutNow.jpg","info","sub","2.41","{""undefined"":""67""}","","","","","","","","","","","","imgNWTK/KeepItSecret.jpg",""
"5584.89999999851","","","survey-number","100","471365","0.0-16.0","female","20","China","51427","26573","imgNWTK/KeepItSecret.jpg","imgNWTK/FindOutNow.jpg","imgNWTK/KeepItSecret.jpg","imgNWTK/FindOutNow.jpg","info","sub","2.41","{""undefined"":""1""}","","","","","","","","","","","","","imgNWTK/KeepItSecret.jpg"
"2669.1999999955297","","","survey-number","101","474039","0.0-17.0","female","20","China","51427","26573","imgNWTK/KeepItSecret.jpg","imgNWTK/FindOutNow.jpg","imgNWTK/KeepItSecret.jpg","imgNWTK/FindOutNow.jpg","info","sub","2.41","{""undefined"":""50""}","","","","","","","","","","","","","imgNWTK/FindOutNow.jpg"
"58189","<p style=""text-align:left;"">Great! We are almost at the end of the study... (Please do not close the browser window yet.)</p><p> Your final points balance is 2406, which equals to a bonus payment of $2.41. Please collect your payment from Mathews Building Room 721 (Mon-Fri 9am-5pm); please email amy.x.li@unsw.edu.au at least 24 hours prior to collection so that this is ready for you.</p><p style=""text-align:left;"">To view the debriefing form, please click <a href=""./imgNWTK/debrief_3205.pdf"" target=""_blank"">here</a> to download a copy.</p><p style=""text-align:left;"">Then, <b>please click the below button</b> to confirm that you have received your debrief and to complete the study. Upon clicking ""Finish!"", your SONA credit will be automatically assigned.</p>","0","html-button-response","102","532230","0.0-18.0","female","20","China","51427","26573","imgNWTK/KeepItSecret.jpg","imgNWTK/FindOutNow.jpg","imgNWTK/KeepItSecret.jpg","imgNWTK/FindOutNow.jpg","info","sub","2.41","","","","","","","","","","","","","",""
