"rt","stimulus","button_pressed","trial_type","trial_index","time_elapsed","internal_node_id","gender","age","language","PID","sona_id","subStim","optStim","stim1","stim2","infoCond","optimCond","bonus","responses","banditTrial","choice","cue","feedback","estimateData","leftOption","rightOption","choiceName","leftInput","rightInput","key_press","postQ","singleEst"
"4362","<p>Thank you for signing up to participate in SONA Study 465! <br> During this study, please focus on the experiment and refrain from activities such as:</p>- <b>Switching to other tabs on your browser (this will be monitored via the experiment)</br> - Using your mobile phone/cell phone</br> - Communicating with others</br></br></b><p>This way, you are helping to provide data that is useful for psychological research. We thank you for your cooperation!</p>","0","html-button-response","0","4366","0.0-0.0","female","19","Australia","73948","25276","imgNWTK/triangle.png","imgNWTK/square.png","imgNWTK/triangle.png","imgNWTK/square.png","noninfo","sub","2.68","","","","","","","","","","","","","",""
"1697","<p>Welcome to the experiment!</p><p>You will now read some instructions about the task. Press the 'Next' button to continue. </p>","0","html-button-response","1","6065","0.0-1.0","female","19","Australia","73948","25276","imgNWTK/triangle.png","imgNWTK/square.png","imgNWTK/triangle.png","imgNWTK/square.png","noninfo","sub","2.68","","","","","","","","","","","","","",""
"9763","<p> On each trial throughout the experiment you will choose between two options, </br>a <b>Black Square </b> and <b> Black Triangle </b>, as seen below.</p><div><div style= 'float: left; width: 300px; margin: 10px 10px;'><img src= 'imgNWTK/square.png'></img></div><div style= 'float: right; width: 300px; margin: 10px 10px;'><img src= 'imgNWTK/triangle.png'></img></div></div><br/><br/><br/><br/><br/><br/><br/><br/><br/><br/><br/><p>Each option results in winning points or receiving 0 points.</br>There is a 50% chance of either winning or receiving 0 points.</p><p>You won't receive the outcome until after a <b> 20 second delay</b>.</p>","0","html-button-response","2","15832","0.0-2.0-0.0","female","19","Australia","73948","25276","imgNWTK/triangle.png","imgNWTK/square.png","imgNWTK/triangle.png","imgNWTK/square.png","noninfo","sub","2.68","","","","","","","","","","","","","",""
"11331","<img src= 'imgNWTK/NonInfoDiagram.png'></img><p>As seen above, whether you choose the square or triangle, you will receive a coloured circle after the choice. </p> <p>This circle will be on screen for 20 seconds until you win points or receive 0 points.</p><p>The coloured circle depends on which option you chose. </br> In the above example, choosing a triangle leads to a green circle and choosing the square leads to a red circle.</p>Please note: the circles in your task will be different to the above colours.</br></br>","0","html-button-response","3","27166","0.0-2.0-1.0","female","19","Australia","73948","25276","imgNWTK/triangle.png","imgNWTK/square.png","imgNWTK/triangle.png","imgNWTK/square.png","noninfo","sub","2.68","","","","","","","","","","","","","",""
"5048","<img src= 'cues/winTrials_noInfo.png' width = '1200'></img><p>To reiterate, 50% of the outcomes of each option will be WIN TRIALS, and the other 50% will be NO-WIN TRIALS.","0","html-button-response","4","32218","0.0-2.0-2.0","female","19","Australia","73948","25276","imgNWTK/triangle.png","imgNWTK/square.png","imgNWTK/triangle.png","imgNWTK/square.png","noninfo","sub","2.68","","","","","","","","","","","","","",""
"12744","<p> There will be <b>four blocks</b> in the experiment.</br>You will be given a short 15 second break between each block.</p><p><b>The points and the options will remain the same between the blocks.</b></p>The blocks are there just to give you a small break.</br></br></br></br><p>The points you earn in the task are also equal to <b> actual money</b>.</br> <b>1000 points is equal to $1 AUD</b></p><p>This is the rate you will be paid at the experiment's end.","0","html-button-response","5","44966","0.0-2.0-3.0","female","19","Australia","73948","25276","imgNWTK/triangle.png","imgNWTK/square.png","imgNWTK/triangle.png","imgNWTK/square.png","noninfo","sub","2.68","","","","","","","","","","","","","",""
"11148","","","survey-multi-choice","6","56133","0.0-2.0-4.0","female","19","Australia","73948","25276","imgNWTK/triangle.png","imgNWTK/square.png","imgNWTK/triangle.png","imgNWTK/square.png","noninfo","sub","2.68","{""Q0"":""20 Seconds"",""Q1"":""True"",""Q2"":""Equally""}","","","","","","","","","","","","",""
"1279","<p> Well done, all your answers were correct! <br> The experiment is about to start now. <br/> Click start to continue, or email your researcher <b>(amy.x.li@unsw.edu.au)</b> if you have any questions before starting.","0","html-button-response","7","57418","0.0-3.0","female","19","Australia","73948","25276","imgNWTK/triangle.png","imgNWTK/square.png","imgNWTK/triangle.png","imgNWTK/square.png","noninfo","sub","2.68","","","","","","","","","","","","","",""
"1700","","","bandit-task-exp6","8","62350","0.0-4.0-0.0","female","19","Australia","73948","25276","imgNWTK/triangle.png","imgNWTK/square.png","imgNWTK/triangle.png","imgNWTK/square.png","noninfo","sub","2.68","","1","1","1","113","null","imgNWTK/square.png","imgNWTK/triangle.png","imgNWTK/triangle.png","NaN","NaN","","",""
"1419","","","bandit-task-exp6","9","66885","0.0-4.0-0.1","female","19","Australia","73948","25276","imgNWTK/triangle.png","imgNWTK/square.png","imgNWTK/triangle.png","imgNWTK/square.png","noninfo","sub","2.68","","2","2","1","0","null","imgNWTK/triangle.png","imgNWTK/square.png","imgNWTK/square.png","NaN","NaN","","",""
"782","","","bandit-task-exp6","10","70885","0.0-4.0-0.2","female","19","Australia","73948","25276","imgNWTK/triangle.png","imgNWTK/square.png","imgNWTK/triangle.png","imgNWTK/square.png","noninfo","sub","2.68","","3","1","2","0","null","imgNWTK/square.png","imgNWTK/triangle.png","imgNWTK/triangle.png","NaN","NaN","","",""
"1116","","","bandit-task-exp6","11","74882","0.0-4.0-0.3","female","19","Australia","73948","25276","imgNWTK/triangle.png","imgNWTK/square.png","imgNWTK/triangle.png","imgNWTK/square.png","noninfo","sub","2.68","","4","1","2","0","null","imgNWTK/square.png","imgNWTK/triangle.png","imgNWTK/triangle.png","NaN","NaN","","",""
"729","","","bandit-task-exp6","12","78698","0.0-4.0-0.4","female","19","Australia","73948","25276","imgNWTK/triangle.png","imgNWTK/square.png","imgNWTK/triangle.png","imgNWTK/square.png","noninfo","sub","2.68","","5","2","1","0","null","imgNWTK/triangle.png","imgNWTK/square.png","imgNWTK/square.png","NaN","NaN","","",""
"1062","","","bandit-task-exp6","13","82897","0.0-4.0-0.5","female","19","Australia","73948","25276","imgNWTK/triangle.png","imgNWTK/square.png","imgNWTK/triangle.png","imgNWTK/square.png","noninfo","sub","2.68","","6","2","2","71","null","imgNWTK/square.png","imgNWTK/triangle.png","imgNWTK/square.png","NaN","NaN","","",""
"897","","","bandit-task-exp6","14","86781","0.0-4.0-0.6","female","19","Australia","73948","25276","imgNWTK/triangle.png","imgNWTK/square.png","imgNWTK/triangle.png","imgNWTK/square.png","noninfo","sub","2.68","","7","1","2","0","null","imgNWTK/triangle.png","imgNWTK/square.png","imgNWTK/triangle.png","NaN","NaN","","",""
"847","","","bandit-task-exp6","15","91297","0.0-4.0-0.7","female","19","Australia","73948","25276","imgNWTK/triangle.png","imgNWTK/square.png","imgNWTK/triangle.png","imgNWTK/square.png","noninfo","sub","2.68","","8","1","2","0","null","imgNWTK/square.png","imgNWTK/triangle.png","imgNWTK/triangle.png","NaN","NaN","","",""
"678","","","bandit-task-exp6","16","94449","0.0-4.0-0.8","female","19","Australia","73948","25276","imgNWTK/triangle.png","imgNWTK/square.png","imgNWTK/triangle.png","imgNWTK/square.png","noninfo","sub","2.68","","9","1","2","0","null","imgNWTK/square.png","imgNWTK/triangle.png","imgNWTK/triangle.png","NaN","NaN","","",""
"1160","","","bandit-task-exp6","17","98614","0.0-4.0-0.9","female","19","Australia","73948","25276","imgNWTK/triangle.png","imgNWTK/square.png","imgNWTK/triangle.png","imgNWTK/square.png","noninfo","sub","2.68","","10","1","1","123","null","imgNWTK/triangle.png","imgNWTK/square.png","imgNWTK/triangle.png","NaN","NaN","","",""
"629","","","bandit-task-exp6","18","101915","0.0-4.0-0.10","female","19","Australia","73948","25276","imgNWTK/triangle.png","imgNWTK/square.png","imgNWTK/triangle.png","imgNWTK/square.png","noninfo","sub","2.68","","11","2","1","0","null","imgNWTK/triangle.png","imgNWTK/square.png","imgNWTK/square.png","NaN","NaN","","",""
"796","","","bandit-task-exp6","19","105397","0.0-4.0-0.11","female","19","Australia","73948","25276","imgNWTK/triangle.png","imgNWTK/square.png","imgNWTK/triangle.png","imgNWTK/square.png","noninfo","sub","2.68","","12","2","1","0","null","imgNWTK/triangle.png","imgNWTK/square.png","imgNWTK/square.png","NaN","NaN","","",""
"763","","","bandit-task-exp6","20","109065","0.0-4.0-0.12","female","19","Australia","73948","25276","imgNWTK/triangle.png","imgNWTK/square.png","imgNWTK/triangle.png","imgNWTK/square.png","noninfo","sub","2.68","","13","1","2","0","null","imgNWTK/triangle.png","imgNWTK/square.png","imgNWTK/triangle.png","NaN","NaN","","",""
"695","","","bandit-task-exp6","21","112612","0.0-4.0-0.13","female","19","Australia","73948","25276","imgNWTK/triangle.png","imgNWTK/square.png","imgNWTK/triangle.png","imgNWTK/square.png","noninfo","sub","2.68","","14","1","1","113","null","imgNWTK/square.png","imgNWTK/triangle.png","imgNWTK/triangle.png","NaN","NaN","","",""
"683","","","bandit-task-exp6","22","116147","0.0-4.0-0.14","female","19","Australia","73948","25276","imgNWTK/triangle.png","imgNWTK/square.png","imgNWTK/triangle.png","imgNWTK/square.png","noninfo","sub","2.68","","15","1","2","0","null","imgNWTK/square.png","imgNWTK/triangle.png","imgNWTK/triangle.png","NaN","NaN","","",""
"null","<p><b> Congratulations, you have finished this block. </b> </p><p>Please take a short break before moving onto the next block.</p><p>The next block will start after a 15 second break.</p><b>Remember, the point rewards are the same between blocks","","html-keyboard-response","23","131150","0.0-5.0","female","19","Australia","73948","25276","imgNWTK/triangle.png","imgNWTK/square.png","imgNWTK/triangle.png","imgNWTK/square.png","noninfo","sub","2.68","","","","","","","","","","","","null","",""
"989","","","bandit-task-exp6","24","135716","0.0-6.0-0.0","female","19","Australia","73948","25276","imgNWTK/triangle.png","imgNWTK/square.png","imgNWTK/triangle.png","imgNWTK/square.png","noninfo","sub","2.68","","16","1","2","0","null","imgNWTK/square.png","imgNWTK/triangle.png","imgNWTK/triangle.png","NaN","NaN","","",""
"759","","","bandit-task-exp6","25","138866","0.0-6.0-0.1","female","19","Australia","73948","25276","imgNWTK/triangle.png","imgNWTK/square.png","imgNWTK/triangle.png","imgNWTK/square.png","noninfo","sub","2.68","","17","1","2","0","null","imgNWTK/square.png","imgNWTK/triangle.png","imgNWTK/triangle.png","NaN","NaN","","",""
"610","","","bandit-task-exp6","26","141898","0.0-6.0-0.2","female","19","Australia","73948","25276","imgNWTK/triangle.png","imgNWTK/square.png","imgNWTK/triangle.png","imgNWTK/square.png","noninfo","sub","2.68","","18","1","2","0","null","imgNWTK/square.png","imgNWTK/triangle.png","imgNWTK/triangle.png","NaN","NaN","","",""
"430","","","bandit-task-exp6","27","144731","0.0-6.0-0.3","female","19","Australia","73948","25276","imgNWTK/triangle.png","imgNWTK/square.png","imgNWTK/triangle.png","imgNWTK/square.png","noninfo","sub","2.68","","19","2","2","90","null","imgNWTK/triangle.png","imgNWTK/square.png","imgNWTK/square.png","NaN","NaN","","",""
"745","","","bandit-task-exp6","28","148147","0.0-6.0-0.4","female","19","Australia","73948","25276","imgNWTK/triangle.png","imgNWTK/square.png","imgNWTK/triangle.png","imgNWTK/square.png","noninfo","sub","2.68","","20","1","1","114","null","imgNWTK/triangle.png","imgNWTK/square.png","imgNWTK/triangle.png","NaN","NaN","","",""
"497","","","bandit-task-exp6","29","151447","0.0-6.0-0.5","female","19","Australia","73948","25276","imgNWTK/triangle.png","imgNWTK/square.png","imgNWTK/triangle.png","imgNWTK/square.png","noninfo","sub","2.68","","21","1","2","0","null","imgNWTK/square.png","imgNWTK/triangle.png","imgNWTK/triangle.png","NaN","NaN","","",""
"480","","","bandit-task-exp6","30","154364","0.0-6.0-0.6","female","19","Australia","73948","25276","imgNWTK/triangle.png","imgNWTK/square.png","imgNWTK/triangle.png","imgNWTK/square.png","noninfo","sub","2.68","","22","2","1","0","null","imgNWTK/square.png","imgNWTK/triangle.png","imgNWTK/square.png","NaN","NaN","","",""
"446","","","bandit-task-exp6","31","157264","0.0-6.0-0.7","female","19","Australia","73948","25276","imgNWTK/triangle.png","imgNWTK/square.png","imgNWTK/triangle.png","imgNWTK/square.png","noninfo","sub","2.68","","23","2","2","72","null","imgNWTK/triangle.png","imgNWTK/square.png","imgNWTK/square.png","NaN","NaN","","",""
"463","","","bandit-task-exp6","32","160465","0.0-6.0-0.8","female","19","Australia","73948","25276","imgNWTK/triangle.png","imgNWTK/square.png","imgNWTK/triangle.png","imgNWTK/square.png","noninfo","sub","2.68","","24","2","2","73","null","imgNWTK/square.png","imgNWTK/triangle.png","imgNWTK/square.png","NaN","NaN","","",""
"612","","","bandit-task-exp6","33","163447","0.0-6.0-0.9","female","19","Australia","73948","25276","imgNWTK/triangle.png","imgNWTK/square.png","imgNWTK/triangle.png","imgNWTK/square.png","noninfo","sub","2.68","","25","2","1","0","null","imgNWTK/triangle.png","imgNWTK/square.png","imgNWTK/square.png","NaN","NaN","","",""
"413","","","bandit-task-exp6","34","166547","0.0-6.0-0.10","female","19","Australia","73948","25276","imgNWTK/triangle.png","imgNWTK/square.png","imgNWTK/triangle.png","imgNWTK/square.png","noninfo","sub","2.68","","26","1","2","0","null","imgNWTK/triangle.png","imgNWTK/square.png","imgNWTK/triangle.png","NaN","NaN","","",""
"414","","","bandit-task-exp6","35","169714","0.0-6.0-0.11","female","19","Australia","73948","25276","imgNWTK/triangle.png","imgNWTK/square.png","imgNWTK/triangle.png","imgNWTK/square.png","noninfo","sub","2.68","","27","1","1","116","null","imgNWTK/square.png","imgNWTK/triangle.png","imgNWTK/triangle.png","NaN","NaN","","",""
"1030","","","bandit-task-exp6","36","173649","0.0-6.0-0.12","female","19","Australia","73948","25276","imgNWTK/triangle.png","imgNWTK/square.png","imgNWTK/triangle.png","imgNWTK/square.png","noninfo","sub","2.68","","28","2","1","0","null","imgNWTK/square.png","imgNWTK/triangle.png","imgNWTK/square.png","NaN","NaN","","",""
"645","","","bandit-task-exp6","37","177215","0.0-6.0-0.13","female","19","Australia","73948","25276","imgNWTK/triangle.png","imgNWTK/square.png","imgNWTK/triangle.png","imgNWTK/square.png","noninfo","sub","2.68","","29","2","2","81","null","imgNWTK/triangle.png","imgNWTK/square.png","imgNWTK/square.png","NaN","NaN","","",""
"878","","","bandit-task-exp6","38","180514","0.0-6.0-0.14","female","19","Australia","73948","25276","imgNWTK/triangle.png","imgNWTK/square.png","imgNWTK/triangle.png","imgNWTK/square.png","noninfo","sub","2.68","","30","2","2","90","null","imgNWTK/square.png","imgNWTK/triangle.png","imgNWTK/square.png","NaN","NaN","","",""
"null","<p><b> Congratulations, you have finished this block. </b> </p><p>Please take a short break before moving onto the next block.</p><p>The next block will start after a 15 second break.</p><b>Remember, the point rewards are the same between blocks","","html-keyboard-response","39","195517","0.0-7.0","female","19","Australia","73948","25276","imgNWTK/triangle.png","imgNWTK/square.png","imgNWTK/triangle.png","imgNWTK/square.png","noninfo","sub","2.68","","","","","","","","","","","","null","",""
"1005","","","bandit-task-exp6","40","199332","0.0-8.0-0.0","female","19","Australia","73948","25276","imgNWTK/triangle.png","imgNWTK/square.png","imgNWTK/triangle.png","imgNWTK/square.png","noninfo","sub","2.68","","31","1","1","126","null","imgNWTK/square.png","imgNWTK/triangle.png","imgNWTK/triangle.png","NaN","NaN","","",""
"677","","","bandit-task-exp6","41","202449","0.0-8.0-0.1","female","19","Australia","73948","25276","imgNWTK/triangle.png","imgNWTK/square.png","imgNWTK/triangle.png","imgNWTK/square.png","noninfo","sub","2.68","","32","1","2","0","null","imgNWTK/triangle.png","imgNWTK/square.png","imgNWTK/triangle.png","NaN","NaN","","",""
"477","","","bandit-task-exp6","42","205365","0.0-8.0-0.2","female","19","Australia","73948","25276","imgNWTK/triangle.png","imgNWTK/square.png","imgNWTK/triangle.png","imgNWTK/square.png","noninfo","sub","2.68","","33","1","1","124","null","imgNWTK/square.png","imgNWTK/triangle.png","imgNWTK/triangle.png","NaN","NaN","","",""
"496","","","bandit-task-exp6","43","208281","0.0-8.0-0.3","female","19","Australia","73948","25276","imgNWTK/triangle.png","imgNWTK/square.png","imgNWTK/triangle.png","imgNWTK/square.png","noninfo","sub","2.68","","34","1","1","117","null","imgNWTK/triangle.png","imgNWTK/square.png","imgNWTK/triangle.png","NaN","NaN","","",""
"597","","","bandit-task-exp6","44","211198","0.0-8.0-0.4","female","19","Australia","73948","25276","imgNWTK/triangle.png","imgNWTK/square.png","imgNWTK/triangle.png","imgNWTK/square.png","noninfo","sub","2.68","","35","1","2","0","null","imgNWTK/square.png","imgNWTK/triangle.png","imgNWTK/triangle.png","NaN","NaN","","",""
"1013","","","bandit-task-exp6","45","214665","0.0-8.0-0.5","female","19","Australia","73948","25276","imgNWTK/triangle.png","imgNWTK/square.png","imgNWTK/triangle.png","imgNWTK/square.png","noninfo","sub","2.68","","36","2","1","0","null","imgNWTK/square.png","imgNWTK/triangle.png","imgNWTK/square.png","NaN","NaN","","",""
"495","","","bandit-task-exp6","46","217565","0.0-8.0-0.6","female","19","Australia","73948","25276","imgNWTK/triangle.png","imgNWTK/square.png","imgNWTK/triangle.png","imgNWTK/square.png","noninfo","sub","2.68","","37","2","1","0","null","imgNWTK/triangle.png","imgNWTK/square.png","imgNWTK/square.png","NaN","NaN","","",""
"495","","","bandit-task-exp6","47","220497","0.0-8.0-0.7","female","19","Australia","73948","25276","imgNWTK/triangle.png","imgNWTK/square.png","imgNWTK/triangle.png","imgNWTK/square.png","noninfo","sub","2.68","","38","2","2","86","null","imgNWTK/square.png","imgNWTK/triangle.png","imgNWTK/square.png","NaN","NaN","","",""
"597","","","bandit-task-exp6","48","223681","0.0-8.0-0.8","female","19","Australia","73948","25276","imgNWTK/triangle.png","imgNWTK/square.png","imgNWTK/triangle.png","imgNWTK/square.png","noninfo","sub","2.68","","39","2","2","83","null","imgNWTK/triangle.png","imgNWTK/square.png","imgNWTK/square.png","NaN","NaN","","",""
"596","","","bandit-task-exp6","49","226931","0.0-8.0-0.9","female","19","Australia","73948","25276","imgNWTK/triangle.png","imgNWTK/square.png","imgNWTK/triangle.png","imgNWTK/square.png","noninfo","sub","2.68","","40","2","2","82","null","imgNWTK/square.png","imgNWTK/triangle.png","imgNWTK/square.png","NaN","NaN","","",""
"530","","","bandit-task-exp6","50","229982","0.0-8.0-0.10","female","19","Australia","73948","25276","imgNWTK/triangle.png","imgNWTK/square.png","imgNWTK/triangle.png","imgNWTK/square.png","noninfo","sub","2.68","","41","2","1","0","null","imgNWTK/triangle.png","imgNWTK/square.png","imgNWTK/square.png","NaN","NaN","","",""
"595","","","bandit-task-exp6","51","233047","0.0-8.0-0.11","female","19","Australia","73948","25276","imgNWTK/triangle.png","imgNWTK/square.png","imgNWTK/triangle.png","imgNWTK/square.png","noninfo","sub","2.68","","42","1","2","0","null","imgNWTK/triangle.png","imgNWTK/square.png","imgNWTK/triangle.png","NaN","NaN","","",""
"530","","","bandit-task-exp6","52","235981","0.0-8.0-0.12","female","19","Australia","73948","25276","imgNWTK/triangle.png","imgNWTK/square.png","imgNWTK/triangle.png","imgNWTK/square.png","noninfo","sub","2.68","","43","2","2","73","null","imgNWTK/triangle.png","imgNWTK/square.png","imgNWTK/square.png","NaN","NaN","","",""
"546","","","bandit-task-exp6","53","239115","0.0-8.0-0.13","female","19","Australia","73948","25276","imgNWTK/triangle.png","imgNWTK/square.png","imgNWTK/triangle.png","imgNWTK/square.png","noninfo","sub","2.68","","44","1","1","122","null","imgNWTK/triangle.png","imgNWTK/square.png","imgNWTK/triangle.png","NaN","NaN","","",""
"562","","","bandit-task-exp6","54","242364","0.0-8.0-0.14","female","19","Australia","73948","25276","imgNWTK/triangle.png","imgNWTK/square.png","imgNWTK/triangle.png","imgNWTK/square.png","noninfo","sub","2.68","","45","2","2","71","null","imgNWTK/triangle.png","imgNWTK/square.png","imgNWTK/square.png","NaN","NaN","","",""
"null","<p><b> Congratulations, you have finished this block. </b> </p><p>Please take a short break before moving onto the next block.</p><p>The next block will start after a 15 second break.</p><b>Remember, the point rewards are the same between blocks","","html-keyboard-response","55","257366","0.0-9.0","female","19","Australia","73948","25276","imgNWTK/triangle.png","imgNWTK/square.png","imgNWTK/triangle.png","imgNWTK/square.png","noninfo","sub","2.68","","","","","","","","","","","","null","",""
"13856","","","bandit-task-exp6","56","274247","0.0-10.0-0.0","female","19","Australia","73948","25276","imgNWTK/triangle.png","imgNWTK/square.png","imgNWTK/triangle.png","imgNWTK/square.png","noninfo","sub","2.68","","46","1","1","128","null","imgNWTK/square.png","imgNWTK/triangle.png","imgNWTK/triangle.png","80","120","","",""
"9763","","","bandit-task-exp6","57","286864","0.0-10.0-0.1","female","19","Australia","73948","25276","imgNWTK/triangle.png","imgNWTK/square.png","imgNWTK/triangle.png","imgNWTK/square.png","noninfo","sub","2.68","","47","1","2","0","null","imgNWTK/square.png","imgNWTK/triangle.png","imgNWTK/triangle.png","90","120","","",""
"4260","","","bandit-task-exp6","58","293731","0.0-10.0-0.2","female","19","Australia","73948","25276","imgNWTK/triangle.png","imgNWTK/square.png","imgNWTK/triangle.png","imgNWTK/square.png","noninfo","sub","2.68","","48","2","1","0","null","imgNWTK/triangle.png","imgNWTK/square.png","imgNWTK/square.png","120","90","","",""
"3595","","","bandit-task-exp6","59","300415","0.0-10.0-0.3","female","19","Australia","73948","25276","imgNWTK/triangle.png","imgNWTK/square.png","imgNWTK/triangle.png","imgNWTK/square.png","noninfo","sub","2.68","","49","2","1","0","null","imgNWTK/square.png","imgNWTK/triangle.png","imgNWTK/square.png","90","120","","",""
"4044","","","bandit-task-exp6","60","307047","0.0-10.0-0.4","female","19","Australia","73948","25276","imgNWTK/triangle.png","imgNWTK/square.png","imgNWTK/triangle.png","imgNWTK/square.png","noninfo","sub","2.68","","50","1","2","0","null","imgNWTK/square.png","imgNWTK/triangle.png","imgNWTK/triangle.png","90","130","","",""
"3928","","","bandit-task-exp6","61","313531","0.0-10.0-0.5","female","19","Australia","73948","25276","imgNWTK/triangle.png","imgNWTK/square.png","imgNWTK/triangle.png","imgNWTK/square.png","noninfo","sub","2.68","","51","2","1","0","null","imgNWTK/triangle.png","imgNWTK/square.png","imgNWTK/square.png","130","90","","",""
"4414","","","bandit-task-exp6","62","324397","0.0-10.0-0.6","female","19","Australia","73948","25276","imgNWTK/triangle.png","imgNWTK/square.png","imgNWTK/triangle.png","imgNWTK/square.png","noninfo","sub","2.68","","52","1","1","127","null","imgNWTK/square.png","imgNWTK/triangle.png","imgNWTK/triangle.png","90","130","","",""
"6229","","","bandit-task-exp6","63","333264","0.0-10.0-0.7","female","19","Australia","73948","25276","imgNWTK/triangle.png","imgNWTK/square.png","imgNWTK/triangle.png","imgNWTK/square.png","noninfo","sub","2.68","","53","2","1","0","null","imgNWTK/square.png","imgNWTK/triangle.png","imgNWTK/square.png","90","130","","",""
"4312","","","bandit-task-exp6","64","340397","0.0-10.0-0.8","female","19","Australia","73948","25276","imgNWTK/triangle.png","imgNWTK/square.png","imgNWTK/triangle.png","imgNWTK/square.png","noninfo","sub","2.68","","54","1","1","116","null","imgNWTK/triangle.png","imgNWTK/square.png","imgNWTK/triangle.png","130","90","","",""
"6646","","","bandit-task-exp6","65","354481","0.0-10.0-0.9","female","19","Australia","73948","25276","imgNWTK/triangle.png","imgNWTK/square.png","imgNWTK/triangle.png","imgNWTK/square.png","noninfo","sub","2.68","","55","1","2","0","null","imgNWTK/square.png","imgNWTK/triangle.png","imgNWTK/triangle.png","90","120","","",""
"5028","","","bandit-task-exp6","66","362533","0.0-10.0-0.10","female","19","Australia","73948","25276","imgNWTK/triangle.png","imgNWTK/square.png","imgNWTK/triangle.png","imgNWTK/square.png","noninfo","sub","2.68","","56","1","1","130","null","imgNWTK/square.png","imgNWTK/triangle.png","imgNWTK/triangle.png","90","120","","",""
"3860","","","bandit-task-exp6","67","368898","0.0-10.0-0.11","female","19","Australia","73948","25276","imgNWTK/triangle.png","imgNWTK/square.png","imgNWTK/triangle.png","imgNWTK/square.png","noninfo","sub","2.68","","57","1","1","125","null","imgNWTK/triangle.png","imgNWTK/square.png","imgNWTK/triangle.png","130","90","","",""
"4428","","","bandit-task-exp6","68","375881","0.0-10.0-0.12","female","19","Australia","73948","25276","imgNWTK/triangle.png","imgNWTK/square.png","imgNWTK/triangle.png","imgNWTK/square.png","noninfo","sub","2.68","","58","1","2","0","null","imgNWTK/square.png","imgNWTK/triangle.png","imgNWTK/triangle.png","90","130","","",""
"3028","","","bandit-task-exp6","69","381348","0.0-10.0-0.13","female","19","Australia","73948","25276","imgNWTK/triangle.png","imgNWTK/square.png","imgNWTK/triangle.png","imgNWTK/square.png","noninfo","sub","2.68","","59","1","1","116","null","imgNWTK/square.png","imgNWTK/triangle.png","imgNWTK/triangle.png","90","130","","",""
"2879","","","bandit-task-exp6","70","386647","0.0-10.0-0.14","female","19","Australia","73948","25276","imgNWTK/triangle.png","imgNWTK/square.png","imgNWTK/triangle.png","imgNWTK/square.png","noninfo","sub","2.68","","60","1","2","0","null","imgNWTK/square.png","imgNWTK/triangle.png","imgNWTK/triangle.png","90","130","","",""
"2034","<p> Congratulations, you have finished the main part of the experiment. </p><p>Before you finish, we have a few short questions about the options and outcomes you saw in the task.</p>","0","html-button-response","71","388683","0.0-11.0","female","19","Australia","73948","25276","imgNWTK/triangle.png","imgNWTK/square.png","imgNWTK/triangle.png","imgNWTK/square.png","noninfo","sub","2.68","","","","","","","","","","","","","",""
"6529","<p><b>Now, imagine that you clicked on the below button for another 10 trials (this includes <i> BOTH WIN and NO-WIN trials</i>).</p> <img src= 'imgNWTK/square.png'></img></br></br> <p><b>Please type the reward (number of points) you would expect to receive on every trial.</br> Click start to begin.</p>","0","html-button-response","72","395215","0.0-12.0","female","19","Australia","73948","25276","imgNWTK/triangle.png","imgNWTK/square.png","imgNWTK/triangle.png","imgNWTK/square.png","noninfo","sub","2.68","","","","","","","","","","","","","",""
"2275.2999999523163","","","survey-number","73","397496","0.0-13.0-0.0","female","19","Australia","73948","25276","imgNWTK/triangle.png","imgNWTK/square.png","imgNWTK/triangle.png","imgNWTK/square.png","noninfo","sub","2.68","{""undefined"":""90""}","","","","","","","","","","","","imgNWTK/square.png",""
"783","","","survey-number","74","398283","0.0-13.0-0.1","female","19","Australia","73948","25276","imgNWTK/triangle.png","imgNWTK/square.png","imgNWTK/triangle.png","imgNWTK/square.png","noninfo","sub","2.68","{""undefined"":""0""}","","","","","","","","","","","","imgNWTK/square.png",""
"434.39999997615814","","","survey-number","75","398724","0.0-13.0-0.2","female","19","Australia","73948","25276","imgNWTK/triangle.png","imgNWTK/square.png","imgNWTK/triangle.png","imgNWTK/square.png","noninfo","sub","2.68","{""undefined"":""0""}","","","","","","","","","","","","imgNWTK/square.png",""
"399.5999999642372","","","survey-number","76","399128","0.0-13.0-0.3","female","19","Australia","73948","25276","imgNWTK/triangle.png","imgNWTK/square.png","imgNWTK/triangle.png","imgNWTK/square.png","noninfo","sub","2.68","{""undefined"":""0""}","","","","","","","","","","","","imgNWTK/square.png",""
"930.7000000476837","","","survey-number","77","400063","0.0-13.0-0.4","female","19","Australia","73948","25276","imgNWTK/triangle.png","imgNWTK/square.png","imgNWTK/triangle.png","imgNWTK/square.png","noninfo","sub","2.68","{""undefined"":""0""}","","","","","","","","","","","","imgNWTK/square.png",""
"709.6999999880791","","","survey-number","78","400777","0.0-13.0-0.5","female","19","Australia","73948","25276","imgNWTK/triangle.png","imgNWTK/square.png","imgNWTK/triangle.png","imgNWTK/square.png","noninfo","sub","2.68","{""undefined"":""90""}","","","","","","","","","","","","imgNWTK/square.png",""
"1263.2999999523163","","","survey-number","79","402045","0.0-13.0-0.6","female","19","Australia","73948","25276","imgNWTK/triangle.png","imgNWTK/square.png","imgNWTK/triangle.png","imgNWTK/square.png","noninfo","sub","2.68","{""undefined"":""0""}","","","","","","","","","","","","imgNWTK/square.png",""
"876.6000000238419","","","survey-number","80","402926","0.0-13.0-0.7","female","19","Australia","73948","25276","imgNWTK/triangle.png","imgNWTK/square.png","imgNWTK/triangle.png","imgNWTK/square.png","noninfo","sub","2.68","{""undefined"":""0""}","","","","","","","","","","","","imgNWTK/square.png",""
"694.1999999880791","","","survey-number","81","403624","0.0-13.0-0.8","female","19","Australia","73948","25276","imgNWTK/triangle.png","imgNWTK/square.png","imgNWTK/triangle.png","imgNWTK/square.png","noninfo","sub","2.68","{""undefined"":""90""}","","","","","","","","","","","","imgNWTK/square.png",""
"3907.399999976158","","","survey-number","82","407536","0.0-13.0-0.9","female","19","Australia","73948","25276","imgNWTK/triangle.png","imgNWTK/square.png","imgNWTK/triangle.png","imgNWTK/square.png","noninfo","sub","2.68","{""undefined"":""0""}","","","","","","","","","","","","imgNWTK/square.png",""
"1743","<p><b>Imagine that you clicked on the below button for another 10 trials (this includes <i> both WIN and NO-WIN trials</i>).</p> <img src= 'imgNWTK/triangle.png'></img></br></br> <p><b>Please type the reward (number of points) you would expect to receive on every trial.</br> Click start to begin.</p>","0","html-button-response","83","409282","0.0-14.0","female","19","Australia","73948","25276","imgNWTK/triangle.png","imgNWTK/square.png","imgNWTK/triangle.png","imgNWTK/square.png","noninfo","sub","2.68","","","","","","","","","","","","","",""
"1639.8999999761581","","","survey-number","84","410926","0.0-15.0-0.0","female","19","Australia","73948","25276","imgNWTK/triangle.png","imgNWTK/square.png","imgNWTK/triangle.png","imgNWTK/square.png","noninfo","sub","2.68","{""undefined"":""116""}","","","","","","","","","","","","imgNWTK/triangle.png",""
"1438.1000000238419","","","survey-number","85","412368","0.0-15.0-0.1","female","19","Australia","73948","25276","imgNWTK/triangle.png","imgNWTK/square.png","imgNWTK/triangle.png","imgNWTK/square.png","noninfo","sub","2.68","{""undefined"":""0""}","","","","","","","","","","","","imgNWTK/triangle.png",""
"1193.8999999761581","","","survey-number","86","413567","0.0-15.0-0.2","female","19","Australia","73948","25276","imgNWTK/triangle.png","imgNWTK/square.png","imgNWTK/triangle.png","imgNWTK/square.png","noninfo","sub","2.68","{""undefined"":""0""}","","","","","","","","","","","","imgNWTK/triangle.png",""
"1937.300000011921","","","survey-number","87","415508","0.0-15.0-0.3","female","19","Australia","73948","25276","imgNWTK/triangle.png","imgNWTK/square.png","imgNWTK/triangle.png","imgNWTK/square.png","noninfo","sub","2.68","{""undefined"":""127""}","","","","","","","","","","","","imgNWTK/triangle.png",""
"2084.800000011921","","","survey-number","88","417597","0.0-15.0-0.4","female","19","Australia","73948","25276","imgNWTK/triangle.png","imgNWTK/square.png","imgNWTK/triangle.png","imgNWTK/square.png","noninfo","sub","2.68","{""undefined"":""139""}","","","","","","","","","","","","imgNWTK/triangle.png",""
"544","","","survey-number","89","418146","0.0-15.0-0.5","female","19","Australia","73948","25276","imgNWTK/triangle.png","imgNWTK/square.png","imgNWTK/triangle.png","imgNWTK/square.png","noninfo","sub","2.68","{""undefined"":""0""}","","","","","","","","","","","","imgNWTK/triangle.png",""
"2381.699999988079","","","survey-number","90","420531","0.0-15.0-0.6","female","19","Australia","73948","25276","imgNWTK/triangle.png","imgNWTK/square.png","imgNWTK/triangle.png","imgNWTK/square.png","noninfo","sub","2.68","{""undefined"":""117""}","","","","","","","","","","","","imgNWTK/triangle.png",""
"873.2000000476837","","","survey-number","91","421409","0.0-15.0-0.7","female","19","Australia","73948","25276","imgNWTK/triangle.png","imgNWTK/square.png","imgNWTK/triangle.png","imgNWTK/square.png","noninfo","sub","2.68","{""undefined"":""00""}","","","","","","","","","","","","imgNWTK/triangle.png",""
"957.1999999880791","","","survey-number","92","422371","0.0-15.0-0.8","female","19","Australia","73948","25276","imgNWTK/triangle.png","imgNWTK/square.png","imgNWTK/triangle.png","imgNWTK/square.png","noninfo","sub","2.68","{""undefined"":""0""}","","","","","","","","","","","","imgNWTK/triangle.png",""
"1893.3999999761581","","","survey-number","93","424268","0.0-15.0-0.9","female","19","Australia","73948","25276","imgNWTK/triangle.png","imgNWTK/square.png","imgNWTK/triangle.png","imgNWTK/square.png","noninfo","sub","2.68","{""undefined"":""127""}","","","","","","","","","","","","imgNWTK/triangle.png",""
"11907.5","","","survey-number","94","436183","0.0-16.0","female","19","Australia","73948","25276","imgNWTK/triangle.png","imgNWTK/square.png","imgNWTK/triangle.png","imgNWTK/square.png","noninfo","sub","2.68","{""undefined"":""90""}","","","","","","","","","","","","","imgNWTK/square.png"
"2407.699999988079","","","survey-number","95","438596","0.0-17.0","female","19","Australia","73948","25276","imgNWTK/triangle.png","imgNWTK/square.png","imgNWTK/triangle.png","imgNWTK/square.png","noninfo","sub","2.68","{""undefined"":""120""}","","","","","","","","","","","","","imgNWTK/triangle.png"
"20667","<p style=""text-align:left;"">Great! We are almost at the end of the study... (Please do not close the browser window yet.)</p><p> Your final points balance is 2682, which equals to a bonus payment of $2.68. Please collect your payment from Mathews Building Room 721 (Mon-Fri 9am-5pm); please email amy.x.li@unsw.edu.au at least 24 hours prior to collection so that this is ready for you.</p><p style=""text-align:left;"">To view the debriefing form, please click <a href=""./imgNWTK/debrief_3205.pdf"" target=""_blank"">here</a> to download a copy.</p><p style=""text-align:left;"">Then, <b>please click the below button</b> to confirm that you have received your debrief and to complete the study. Upon clicking ""Finish!"", your SONA credit will be automatically assigned.</p>","0","html-button-response","96","459266","0.0-18.0","female","19","Australia","73948","25276","imgNWTK/triangle.png","imgNWTK/square.png","imgNWTK/triangle.png","imgNWTK/square.png","noninfo","sub","2.68","","","","","","","","","","","","","",""
