"rt","stimulus","button_pressed","trial_type","trial_index","time_elapsed","internal_node_id","gender","age","language","PID","sona_id","subStim","optStim","stim1","stim2","infoCond","optimCond","bonus","responses","banditTrial","choice","cue","feedback","estimateData","leftOption","rightOption","choiceName","leftInput","rightInput","key_press","postQ","singleEst"
"7463","<p>Thank you for signing up to participate in SONA Study 465! <br> During this study, please focus on the experiment and refrain from activities such as:</p>- <b>Switching to other tabs on your browser (this will be monitored via the experiment)</br> - Using your mobile phone/cell phone</br> - Communicating with others</br></br></b><p>This way, you are helping to provide data that is useful for psychological research. We thank you for your cooperation!</p>","0","html-button-response","0","7468","0.0-0.0","female","19","Australia","7855","25648","imgNWTK/triangle.png","imgNWTK/square.png","imgNWTK/triangle.png","imgNWTK/square.png","noninfo","optim","3.35","","","","","","","","","","","","","",""
"1737","<p>Welcome to the experiment!</p><p>You will now read some instructions about the task. Press the 'Next' button to continue. </p>","0","html-button-response","1","9207","0.0-1.0","female","19","Australia","7855","25648","imgNWTK/triangle.png","imgNWTK/square.png","imgNWTK/triangle.png","imgNWTK/square.png","noninfo","optim","3.35","","","","","","","","","","","","","",""
"11140","<p> On each trial throughout the experiment you will choose between two options, </br>a <b>Black Square </b> and <b> Black Triangle </b>, as seen below.</p><div><div style= 'float: left; width: 300px; margin: 10px 10px;'><img src= 'imgNWTK/square.png'></img></div><div style= 'float: right; width: 300px; margin: 10px 10px;'><img src= 'imgNWTK/triangle.png'></img></div></div><br/><br/><br/><br/><br/><br/><br/><br/><br/><br/><br/><p>Each option results in winning points or receiving 0 points.</br>There is a 50% chance of either winning or receiving 0 points.</p><p>You won't receive the outcome until after a <b> 20 second delay</b>.</p>","0","html-button-response","2","20349","0.0-2.0-0.0","female","19","Australia","7855","25648","imgNWTK/triangle.png","imgNWTK/square.png","imgNWTK/triangle.png","imgNWTK/square.png","noninfo","optim","3.35","","","","","","","","","","","","","",""
"27362","<img src= 'imgNWTK/NonInfoDiagram.png'></img><p>As seen above, whether you choose the square or triangle, you will receive a coloured circle after the choice. </p> <p>This circle will be on screen for 20 seconds until you win points or receive 0 points.</p><p>The coloured circle depends on which option you chose. </br> In the above example, choosing a triangle leads to a green circle and choosing the square leads to a red circle.</p>Please note: the circles in your task will be different to the above colours.</br></br>","0","html-button-response","3","47713","0.0-2.0-1.0","female","19","Australia","7855","25648","imgNWTK/triangle.png","imgNWTK/square.png","imgNWTK/triangle.png","imgNWTK/square.png","noninfo","optim","3.35","","","","","","","","","","","","","",""
"9471","<img src= 'cues/winTrials_noInfo.png' width = '1200'></img><p>To reiterate, 50% of the outcomes of each option will be WIN TRIALS, and the other 50% will be NO-WIN TRIALS.","0","html-button-response","4","57186","0.0-2.0-2.0","female","19","Australia","7855","25648","imgNWTK/triangle.png","imgNWTK/square.png","imgNWTK/triangle.png","imgNWTK/square.png","noninfo","optim","3.35","","","","","","","","","","","","","",""
"12861","<p> There will be <b>four blocks</b> in the experiment.</br>You will be given a short 15 second break between each block.</p><p><b>The points and the options will remain the same between the blocks.</b></p>The blocks are there just to give you a small break.</br></br></br></br><p>The points you earn in the task are also equal to <b> actual money</b>.</br> <b>1000 points is equal to $1 AUD</b></p><p>This is the rate you will be paid at the experiment's end.","0","html-button-response","5","70050","0.0-2.0-3.0","female","19","Australia","7855","25648","imgNWTK/triangle.png","imgNWTK/square.png","imgNWTK/triangle.png","imgNWTK/square.png","noninfo","optim","3.35","","","","","","","","","","","","","",""
"17965","","","survey-multi-choice","6","88020","0.0-2.0-4.0","female","19","Australia","7855","25648","imgNWTK/triangle.png","imgNWTK/square.png","imgNWTK/triangle.png","imgNWTK/square.png","noninfo","optim","3.35","{""Q0"":""20 Seconds"",""Q1"":""True"",""Q2"":""Equally""}","","","","","","","","","","","","",""
"3129","<p> Well done, all your answers were correct! <br> The experiment is about to start now. <br/> Click start to continue, or email your researcher <b>(amy.x.li@unsw.edu.au)</b> if you have any questions before starting.","0","html-button-response","7","91153","0.0-3.0","female","19","Australia","7855","25648","imgNWTK/triangle.png","imgNWTK/square.png","imgNWTK/triangle.png","imgNWTK/square.png","noninfo","optim","3.35","","","","","","","","","","","","","",""
"4547","","","bandit-task-exp6","8","119610","0.0-4.0-0.0","female","19","Australia","7855","25648","imgNWTK/triangle.png","imgNWTK/square.png","imgNWTK/triangle.png","imgNWTK/square.png","noninfo","optim","3.35","","1","2","2","120","null","imgNWTK/triangle.png","imgNWTK/square.png","imgNWTK/square.png","NaN","NaN","","",""
"2341","","","bandit-task-exp6","9","144596","0.0-4.0-0.1","female","19","Australia","7855","25648","imgNWTK/triangle.png","imgNWTK/square.png","imgNWTK/triangle.png","imgNWTK/square.png","noninfo","optim","3.35","","2","1","2","0","null","imgNWTK/triangle.png","imgNWTK/square.png","imgNWTK/triangle.png","NaN","NaN","","",""
"3321","","","bandit-task-exp6","10","170879","0.0-4.0-0.2","female","19","Australia","7855","25648","imgNWTK/triangle.png","imgNWTK/square.png","imgNWTK/triangle.png","imgNWTK/square.png","noninfo","optim","3.35","","3","1","1","71","null","imgNWTK/square.png","imgNWTK/triangle.png","imgNWTK/triangle.png","NaN","NaN","","",""
"1652","","","bandit-task-exp6","11","198217","0.0-4.0-0.3","female","19","Australia","7855","25648","imgNWTK/triangle.png","imgNWTK/square.png","imgNWTK/triangle.png","imgNWTK/square.png","noninfo","optim","3.35","","4","2","1","0","null","imgNWTK/square.png","imgNWTK/triangle.png","imgNWTK/square.png","NaN","NaN","","",""
"2559","","","bandit-task-exp6","12","223234","0.0-4.0-0.4","female","19","Australia","7855","25648","imgNWTK/triangle.png","imgNWTK/square.png","imgNWTK/triangle.png","imgNWTK/square.png","noninfo","optim","3.35","","5","1","2","0","null","imgNWTK/triangle.png","imgNWTK/square.png","imgNWTK/triangle.png","NaN","NaN","","",""
"1128","","","bandit-task-exp6","13","246872","0.0-4.0-0.5","female","19","Australia","7855","25648","imgNWTK/triangle.png","imgNWTK/square.png","imgNWTK/triangle.png","imgNWTK/square.png","noninfo","optim","3.35","","6","2","2","125","null","imgNWTK/triangle.png","imgNWTK/square.png","imgNWTK/square.png","NaN","NaN","","",""
"1828","","","bandit-task-exp6","14","271080","0.0-4.0-0.6","female","19","Australia","7855","25648","imgNWTK/triangle.png","imgNWTK/square.png","imgNWTK/triangle.png","imgNWTK/square.png","noninfo","optim","3.35","","7","1","1","85","null","imgNWTK/triangle.png","imgNWTK/square.png","imgNWTK/triangle.png","NaN","NaN","","",""
"1704","","","bandit-task-exp6","15","295137","0.0-4.0-0.7","female","19","Australia","7855","25648","imgNWTK/triangle.png","imgNWTK/square.png","imgNWTK/triangle.png","imgNWTK/square.png","noninfo","optim","3.35","","8","2","1","0","null","imgNWTK/triangle.png","imgNWTK/square.png","imgNWTK/square.png","NaN","NaN","","",""
"1183","","","bandit-task-exp6","16","318987","0.0-4.0-0.8","female","19","Australia","7855","25648","imgNWTK/triangle.png","imgNWTK/square.png","imgNWTK/triangle.png","imgNWTK/square.png","noninfo","optim","3.35","","9","2","1","0","null","imgNWTK/square.png","imgNWTK/triangle.png","imgNWTK/square.png","NaN","NaN","","",""
"2765","","","bandit-task-exp6","17","344067","0.0-4.0-0.9","female","19","Australia","7855","25648","imgNWTK/triangle.png","imgNWTK/square.png","imgNWTK/triangle.png","imgNWTK/square.png","noninfo","optim","3.35","","10","2","1","0","null","imgNWTK/square.png","imgNWTK/triangle.png","imgNWTK/square.png","NaN","NaN","","",""
"1069","","","bandit-task-exp6","18","367753","0.0-4.0-0.10","female","19","Australia","7855","25648","imgNWTK/triangle.png","imgNWTK/square.png","imgNWTK/triangle.png","imgNWTK/square.png","noninfo","optim","3.35","","11","1","2","0","null","imgNWTK/square.png","imgNWTK/triangle.png","imgNWTK/triangle.png","NaN","NaN","","",""
"1979","","","bandit-task-exp6","19","392119","0.0-4.0-0.11","female","19","Australia","7855","25648","imgNWTK/triangle.png","imgNWTK/square.png","imgNWTK/triangle.png","imgNWTK/square.png","noninfo","optim","3.35","","12","2","1","0","null","imgNWTK/triangle.png","imgNWTK/square.png","imgNWTK/square.png","NaN","NaN","","",""
"1757","","","bandit-task-exp6","20","424836","0.0-4.0-0.12","female","19","Australia","7855","25648","imgNWTK/triangle.png","imgNWTK/square.png","imgNWTK/triangle.png","imgNWTK/square.png","noninfo","optim","3.35","","13","1","1","84","null","imgNWTK/triangle.png","imgNWTK/square.png","imgNWTK/triangle.png","NaN","NaN","","",""
"2098","","","bandit-task-exp6","21","449487","0.0-4.0-0.13","female","19","Australia","7855","25648","imgNWTK/triangle.png","imgNWTK/square.png","imgNWTK/triangle.png","imgNWTK/square.png","noninfo","optim","3.35","","14","2","1","0","null","imgNWTK/triangle.png","imgNWTK/square.png","imgNWTK/square.png","NaN","NaN","","",""
"1216","","","bandit-task-exp6","22","473872","0.0-4.0-0.14","female","19","Australia","7855","25648","imgNWTK/triangle.png","imgNWTK/square.png","imgNWTK/triangle.png","imgNWTK/square.png","noninfo","optim","3.35","","15","1","1","81","null","imgNWTK/triangle.png","imgNWTK/square.png","imgNWTK/triangle.png","NaN","NaN","","",""
"null","<p><b> Congratulations, you have finished this block. </b> </p><p>Please take a short break before moving onto the next block.</p><p>The next block will start after a 15 second break.</p><b>Remember, the point rewards are the same between blocks","","html-keyboard-response","23","488889","0.0-5.0","female","19","Australia","7855","25648","imgNWTK/triangle.png","imgNWTK/square.png","imgNWTK/triangle.png","imgNWTK/square.png","noninfo","optim","3.35","","","","","","","","","","","","null","",""
"128527","","","bandit-task-exp6","24","640317","0.0-6.0-0.0","female","19","Australia","7855","25648","imgNWTK/triangle.png","imgNWTK/square.png","imgNWTK/triangle.png","imgNWTK/square.png","noninfo","optim","3.35","","16","2","1","0","null","imgNWTK/square.png","imgNWTK/triangle.png","imgNWTK/square.png","NaN","NaN","","",""
"17128","","","bandit-task-exp6","25","680891","0.0-6.0-0.1","female","19","Australia","7855","25648","imgNWTK/triangle.png","imgNWTK/square.png","imgNWTK/triangle.png","imgNWTK/square.png","noninfo","optim","3.35","","17","2","1","0","null","imgNWTK/triangle.png","imgNWTK/square.png","imgNWTK/square.png","NaN","NaN","","",""
"1556","","","bandit-task-exp6","26","705342","0.0-6.0-0.2","female","19","Australia","7855","25648","imgNWTK/triangle.png","imgNWTK/square.png","imgNWTK/triangle.png","imgNWTK/square.png","noninfo","optim","3.35","","18","1","1","71","null","imgNWTK/triangle.png","imgNWTK/square.png","imgNWTK/triangle.png","NaN","NaN","","",""
"1303","","","bandit-task-exp6","27","730780","0.0-6.0-0.3","female","19","Australia","7855","25648","imgNWTK/triangle.png","imgNWTK/square.png","imgNWTK/triangle.png","imgNWTK/square.png","noninfo","optim","3.35","","19","2","2","124","null","imgNWTK/triangle.png","imgNWTK/square.png","imgNWTK/square.png","NaN","NaN","","",""
"3388","","","bandit-task-exp6","28","756476","0.0-6.0-0.4","female","19","Australia","7855","25648","imgNWTK/triangle.png","imgNWTK/square.png","imgNWTK/triangle.png","imgNWTK/square.png","noninfo","optim","3.35","","20","1","1","83","null","imgNWTK/triangle.png","imgNWTK/square.png","imgNWTK/triangle.png","NaN","NaN","","",""
"1562","","","bandit-task-exp6","29","780876","0.0-6.0-0.5","female","19","Australia","7855","25648","imgNWTK/triangle.png","imgNWTK/square.png","imgNWTK/triangle.png","imgNWTK/square.png","noninfo","optim","3.35","","21","2","1","0","null","imgNWTK/square.png","imgNWTK/triangle.png","imgNWTK/square.png","NaN","NaN","","",""
"2171","","","bandit-task-exp6","30","805468","0.0-6.0-0.6","female","19","Australia","7855","25648","imgNWTK/triangle.png","imgNWTK/square.png","imgNWTK/triangle.png","imgNWTK/square.png","noninfo","optim","3.35","","22","2","2","118","null","imgNWTK/triangle.png","imgNWTK/square.png","imgNWTK/square.png","NaN","NaN","","",""
"1360","","","bandit-task-exp6","31","829576","0.0-6.0-0.7","female","19","Australia","7855","25648","imgNWTK/triangle.png","imgNWTK/square.png","imgNWTK/triangle.png","imgNWTK/square.png","noninfo","optim","3.35","","23","2","2","110","null","imgNWTK/triangle.png","imgNWTK/square.png","imgNWTK/square.png","NaN","NaN","","",""
"1878","","","bandit-task-exp6","32","855077","0.0-6.0-0.8","female","19","Australia","7855","25648","imgNWTK/triangle.png","imgNWTK/square.png","imgNWTK/triangle.png","imgNWTK/square.png","noninfo","optim","3.35","","24","1","2","0","null","imgNWTK/triangle.png","imgNWTK/square.png","imgNWTK/triangle.png","NaN","NaN","","",""
"1195","","","bandit-task-exp6","33","879216","0.0-6.0-0.9","female","19","Australia","7855","25648","imgNWTK/triangle.png","imgNWTK/square.png","imgNWTK/triangle.png","imgNWTK/square.png","noninfo","optim","3.35","","25","2","2","129","null","imgNWTK/triangle.png","imgNWTK/square.png","imgNWTK/square.png","NaN","NaN","","",""
"1825","","","bandit-task-exp6","34","903371","0.0-6.0-0.10","female","19","Australia","7855","25648","imgNWTK/triangle.png","imgNWTK/square.png","imgNWTK/triangle.png","imgNWTK/square.png","noninfo","optim","3.35","","26","2","1","0","null","imgNWTK/square.png","imgNWTK/triangle.png","imgNWTK/square.png","NaN","NaN","","",""
"1133","","","bandit-task-exp6","35","927195","0.0-6.0-0.11","female","19","Australia","7855","25648","imgNWTK/triangle.png","imgNWTK/square.png","imgNWTK/triangle.png","imgNWTK/square.png","noninfo","optim","3.35","","27","2","2","119","null","imgNWTK/triangle.png","imgNWTK/square.png","imgNWTK/square.png","NaN","NaN","","",""
"1247","","","bandit-task-exp6","36","950713","0.0-6.0-0.12","female","19","Australia","7855","25648","imgNWTK/triangle.png","imgNWTK/square.png","imgNWTK/triangle.png","imgNWTK/square.png","noninfo","optim","3.35","","28","2","1","0","null","imgNWTK/triangle.png","imgNWTK/square.png","imgNWTK/square.png","NaN","NaN","","",""
"1094","","","bandit-task-exp6","37","974679","0.0-6.0-0.13","female","19","Australia","7855","25648","imgNWTK/triangle.png","imgNWTK/square.png","imgNWTK/triangle.png","imgNWTK/square.png","noninfo","optim","3.35","","29","1","1","89","null","imgNWTK/triangle.png","imgNWTK/square.png","imgNWTK/triangle.png","NaN","NaN","","",""
"2426","","","bandit-task-exp6","38","999814","0.0-6.0-0.14","female","19","Australia","7855","25648","imgNWTK/triangle.png","imgNWTK/square.png","imgNWTK/triangle.png","imgNWTK/square.png","noninfo","optim","3.35","","30","1","2","0","null","imgNWTK/triangle.png","imgNWTK/square.png","imgNWTK/triangle.png","NaN","NaN","","",""
"null","<p><b> Congratulations, you have finished this block. </b> </p><p>Please take a short break before moving onto the next block.</p><p>The next block will start after a 15 second break.</p><b>Remember, the point rewards are the same between blocks","","html-keyboard-response","39","1014829","0.0-7.0","female","19","Australia","7855","25648","imgNWTK/triangle.png","imgNWTK/square.png","imgNWTK/triangle.png","imgNWTK/square.png","noninfo","optim","3.35","","","","","","","","","","","","null","",""
"4690","","","bandit-task-exp6","40","1041740","0.0-8.0-0.0","female","19","Australia","7855","25648","imgNWTK/triangle.png","imgNWTK/square.png","imgNWTK/triangle.png","imgNWTK/square.png","noninfo","optim","3.35","","31","2","1","0","null","imgNWTK/square.png","imgNWTK/triangle.png","imgNWTK/square.png","NaN","NaN","","",""
"2892","","","bandit-task-exp6","41","1072806","0.0-8.0-0.1","female","19","Australia","7855","25648","imgNWTK/triangle.png","imgNWTK/square.png","imgNWTK/triangle.png","imgNWTK/square.png","noninfo","optim","3.35","","32","2","2","113","null","imgNWTK/square.png","imgNWTK/triangle.png","imgNWTK/square.png","NaN","NaN","","",""
"2600","","","bandit-task-exp6","42","1097714","0.0-8.0-0.2","female","19","Australia","7855","25648","imgNWTK/triangle.png","imgNWTK/square.png","imgNWTK/triangle.png","imgNWTK/square.png","noninfo","optim","3.35","","33","1","1","81","null","imgNWTK/triangle.png","imgNWTK/square.png","imgNWTK/triangle.png","NaN","NaN","","",""
"1522","","","bandit-task-exp6","43","1121430","0.0-8.0-0.3","female","19","Australia","7855","25648","imgNWTK/triangle.png","imgNWTK/square.png","imgNWTK/triangle.png","imgNWTK/square.png","noninfo","optim","3.35","","34","1","2","0","null","imgNWTK/triangle.png","imgNWTK/square.png","imgNWTK/triangle.png","NaN","NaN","","",""
"1614","","","bandit-task-exp6","44","1145565","0.0-8.0-0.4","female","19","Australia","7855","25648","imgNWTK/triangle.png","imgNWTK/square.png","imgNWTK/triangle.png","imgNWTK/square.png","noninfo","optim","3.35","","35","2","1","0","null","imgNWTK/triangle.png","imgNWTK/square.png","imgNWTK/square.png","NaN","NaN","","",""
"1856","","","bandit-task-exp6","45","1170146","0.0-8.0-0.5","female","19","Australia","7855","25648","imgNWTK/triangle.png","imgNWTK/square.png","imgNWTK/triangle.png","imgNWTK/square.png","noninfo","optim","3.35","","36","2","2","129","null","imgNWTK/triangle.png","imgNWTK/square.png","imgNWTK/square.png","NaN","NaN","","",""
"1307","","","bandit-task-exp6","46","1193851","0.0-8.0-0.6","female","19","Australia","7855","25648","imgNWTK/triangle.png","imgNWTK/square.png","imgNWTK/triangle.png","imgNWTK/square.png","noninfo","optim","3.35","","37","2","2","126","null","imgNWTK/triangle.png","imgNWTK/square.png","imgNWTK/square.png","NaN","NaN","","",""
"2773","","","bandit-task-exp6","47","1219114","0.0-8.0-0.7","female","19","Australia","7855","25648","imgNWTK/triangle.png","imgNWTK/square.png","imgNWTK/triangle.png","imgNWTK/square.png","noninfo","optim","3.35","","38","1","2","0","null","imgNWTK/square.png","imgNWTK/triangle.png","imgNWTK/triangle.png","NaN","NaN","","",""
"1262","","","bandit-task-exp6","48","1242798","0.0-8.0-0.8","female","19","Australia","7855","25648","imgNWTK/triangle.png","imgNWTK/square.png","imgNWTK/triangle.png","imgNWTK/square.png","noninfo","optim","3.35","","39","1","2","0","null","imgNWTK/triangle.png","imgNWTK/square.png","imgNWTK/triangle.png","NaN","NaN","","",""
"2041","","","bandit-task-exp6","49","1267779","0.0-8.0-0.9","female","19","Australia","7855","25648","imgNWTK/triangle.png","imgNWTK/square.png","imgNWTK/triangle.png","imgNWTK/square.png","noninfo","optim","3.35","","40","2","1","0","null","imgNWTK/square.png","imgNWTK/triangle.png","imgNWTK/square.png","NaN","NaN","","",""
"1278","","","bandit-task-exp6","50","1291313","0.0-8.0-0.10","female","19","Australia","7855","25648","imgNWTK/triangle.png","imgNWTK/square.png","imgNWTK/triangle.png","imgNWTK/square.png","noninfo","optim","3.35","","41","1","2","0","null","imgNWTK/square.png","imgNWTK/triangle.png","imgNWTK/triangle.png","NaN","NaN","","",""
"3154","","","bandit-task-exp6","51","1316880","0.0-8.0-0.11","female","19","Australia","7855","25648","imgNWTK/triangle.png","imgNWTK/square.png","imgNWTK/triangle.png","imgNWTK/square.png","noninfo","optim","3.35","","42","1","1","76","null","imgNWTK/square.png","imgNWTK/triangle.png","imgNWTK/triangle.png","NaN","NaN","","",""
"1812","","","bandit-task-exp6","52","1342350","0.0-8.0-0.12","female","19","Australia","7855","25648","imgNWTK/triangle.png","imgNWTK/square.png","imgNWTK/triangle.png","imgNWTK/square.png","noninfo","optim","3.35","","43","1","1","79","null","imgNWTK/square.png","imgNWTK/triangle.png","imgNWTK/triangle.png","NaN","NaN","","",""
"8371","","","bandit-task-exp6","53","1377120","0.0-8.0-0.13","female","19","Australia","7855","25648","imgNWTK/triangle.png","imgNWTK/square.png","imgNWTK/triangle.png","imgNWTK/square.png","noninfo","optim","3.35","","44","1","1","70","null","imgNWTK/triangle.png","imgNWTK/square.png","imgNWTK/triangle.png","NaN","NaN","","",""
"1739","","","bandit-task-exp6","54","1406457","0.0-8.0-0.14","female","19","Australia","7855","25648","imgNWTK/triangle.png","imgNWTK/square.png","imgNWTK/triangle.png","imgNWTK/square.png","noninfo","optim","3.35","","45","2","1","0","null","imgNWTK/square.png","imgNWTK/triangle.png","imgNWTK/square.png","NaN","NaN","","",""
"null","<p><b> Congratulations, you have finished this block. </b> </p><p>Please take a short break before moving onto the next block.</p><p>The next block will start after a 15 second break.</p><b>Remember, the point rewards are the same between blocks","","html-keyboard-response","55","1421471","0.0-9.0","female","19","Australia","7855","25648","imgNWTK/triangle.png","imgNWTK/square.png","imgNWTK/triangle.png","imgNWTK/square.png","noninfo","optim","3.35","","","","","","","","","","","","null","",""
"114802","","","bandit-task-exp6","56","1559547","0.0-10.0-0.0","female","19","Australia","7855","25648","imgNWTK/triangle.png","imgNWTK/square.png","imgNWTK/triangle.png","imgNWTK/square.png","noninfo","optim","3.35","","46","2","1","0","null","imgNWTK/triangle.png","imgNWTK/square.png","imgNWTK/square.png","200","500","","",""
"14816","","","bandit-task-exp6","57","1596752","0.0-10.0-0.1","female","19","Australia","7855","25648","imgNWTK/triangle.png","imgNWTK/square.png","imgNWTK/triangle.png","imgNWTK/square.png","noninfo","optim","3.35","","47","1","1","89","null","imgNWTK/square.png","imgNWTK/triangle.png","imgNWTK/triangle.png","80","142","","",""
"9139","","","bandit-task-exp6","58","1628548","0.0-10.0-0.2","female","19","Australia","7855","25648","imgNWTK/triangle.png","imgNWTK/square.png","imgNWTK/triangle.png","imgNWTK/square.png","noninfo","optim","3.35","","48","2","2","128","null","imgNWTK/square.png","imgNWTK/triangle.png","imgNWTK/square.png","80","0","","",""
"10241","","","bandit-task-exp6","59","1660880","0.0-10.0-0.3","female","19","Australia","7855","25648","imgNWTK/triangle.png","imgNWTK/square.png","imgNWTK/triangle.png","imgNWTK/square.png","noninfo","optim","3.35","","49","2","1","0","null","imgNWTK/square.png","imgNWTK/triangle.png","imgNWTK/square.png","40","0","","",""
"7548","","","bandit-task-exp6","60","1691446","0.0-10.0-0.4","female","19","Australia","7855","25648","imgNWTK/triangle.png","imgNWTK/square.png","imgNWTK/triangle.png","imgNWTK/square.png","noninfo","optim","3.35","","50","1","2","0","null","imgNWTK/square.png","imgNWTK/triangle.png","imgNWTK/triangle.png","0","120","","",""
"9395","","","bandit-task-exp6","61","1723057","0.0-10.0-0.5","female","19","Australia","7855","25648","imgNWTK/triangle.png","imgNWTK/square.png","imgNWTK/triangle.png","imgNWTK/square.png","noninfo","optim","3.35","","51","2","2","128","null","imgNWTK/square.png","imgNWTK/triangle.png","imgNWTK/square.png","60","0","","",""
"12836","","","bandit-task-exp6","62","1758289","0.0-10.0-0.6","female","19","Australia","7855","25648","imgNWTK/triangle.png","imgNWTK/square.png","imgNWTK/triangle.png","imgNWTK/square.png","noninfo","optim","3.35","","52","2","2","121","null","imgNWTK/square.png","imgNWTK/triangle.png","imgNWTK/square.png","130","0","","",""
"8627","","","bandit-task-exp6","63","1789438","0.0-10.0-0.7","female","19","Australia","7855","25648","imgNWTK/triangle.png","imgNWTK/square.png","imgNWTK/triangle.png","imgNWTK/square.png","noninfo","optim","3.35","","53","1","1","83","null","imgNWTK/square.png","imgNWTK/triangle.png","imgNWTK/triangle.png","180","0","","",""
"12582","","","bandit-task-exp6","64","1824432","0.0-10.0-0.8","female","19","Australia","7855","25648","imgNWTK/triangle.png","imgNWTK/square.png","imgNWTK/triangle.png","imgNWTK/square.png","noninfo","optim","3.35","","54","2","2","123","null","imgNWTK/triangle.png","imgNWTK/square.png","imgNWTK/square.png","0","180","","",""
"7905","","","bandit-task-exp6","65","1855474","0.0-10.0-0.9","female","19","Australia","7855","25648","imgNWTK/triangle.png","imgNWTK/square.png","imgNWTK/triangle.png","imgNWTK/square.png","noninfo","optim","3.35","","55","2","2","115","null","imgNWTK/square.png","imgNWTK/triangle.png","imgNWTK/square.png","120","0","","",""
"6876","","","bandit-task-exp6","66","1884905","0.0-10.0-0.10","female","19","Australia","7855","25648","imgNWTK/triangle.png","imgNWTK/square.png","imgNWTK/triangle.png","imgNWTK/square.png","noninfo","optim","3.35","","56","1","1","89","null","imgNWTK/triangle.png","imgNWTK/square.png","imgNWTK/triangle.png","60","0","","",""
"7314","","","bandit-task-exp6","67","1914588","0.0-10.0-0.11","female","19","Australia","7855","25648","imgNWTK/triangle.png","imgNWTK/square.png","imgNWTK/triangle.png","imgNWTK/square.png","noninfo","optim","3.35","","57","1","1","84","null","imgNWTK/square.png","imgNWTK/triangle.png","imgNWTK/triangle.png","0","120","","",""
"7988","","","bandit-task-exp6","68","1945224","0.0-10.0-0.12","female","19","Australia","7855","25648","imgNWTK/triangle.png","imgNWTK/square.png","imgNWTK/triangle.png","imgNWTK/square.png","noninfo","optim","3.35","","58","1","1","73","null","imgNWTK/triangle.png","imgNWTK/square.png","imgNWTK/triangle.png","120","0","","",""
"10845","","","bandit-task-exp6","69","1978923","0.0-10.0-0.13","female","19","Australia","7855","25648","imgNWTK/triangle.png","imgNWTK/square.png","imgNWTK/triangle.png","imgNWTK/square.png","noninfo","optim","3.35","","59","2","2","120","null","imgNWTK/square.png","imgNWTK/triangle.png","imgNWTK/square.png","80","0","","",""
"8020","","","bandit-task-exp6","70","2009224","0.0-10.0-0.14","female","19","Australia","7855","25648","imgNWTK/triangle.png","imgNWTK/square.png","imgNWTK/triangle.png","imgNWTK/square.png","noninfo","optim","3.35","","60","2","2","111","null","imgNWTK/square.png","imgNWTK/triangle.png","imgNWTK/square.png","160","0","","",""
"4264","<p> Congratulations, you have finished the main part of the experiment. </p><p>Before you finish, we have a few short questions about the options and outcomes you saw in the task.</p>","0","html-button-response","71","2013492","0.0-11.0","female","19","Australia","7855","25648","imgNWTK/triangle.png","imgNWTK/square.png","imgNWTK/triangle.png","imgNWTK/square.png","noninfo","optim","3.35","","","","","","","","","","","","","",""
"24664","<p><b>Now, imagine that you clicked on the below button for another 10 trials (this includes <i> BOTH WIN and NO-WIN trials</i>).</p> <img src= 'imgNWTK/triangle.png'></img></br></br> <p><b>Please type the reward (number of points) you would expect to receive on every trial.</br> Click start to begin.</p>","0","html-button-response","72","2038160","0.0-12.0","female","19","Australia","7855","25648","imgNWTK/triangle.png","imgNWTK/square.png","imgNWTK/triangle.png","imgNWTK/square.png","noninfo","optim","3.35","","","","","","","","","","","","","",""
"20146.299999952316","","","survey-number","73","2058317","0.0-13.0-0.0","female","19","Australia","7855","25648","imgNWTK/triangle.png","imgNWTK/square.png","imgNWTK/triangle.png","imgNWTK/square.png","noninfo","optim","3.35","{""undefined"":""400""}","","","","","","","","","","","","imgNWTK/triangle.png",""
"10371.400000095367","","","survey-number","74","2068695","0.0-13.0-0.1","female","19","Australia","7855","25648","imgNWTK/triangle.png","imgNWTK/square.png","imgNWTK/triangle.png","imgNWTK/square.png","noninfo","optim","3.35","{""undefined"":""70""}","","","","","","","","","","","","imgNWTK/triangle.png",""
"3964.5","","","survey-number","75","2072665","0.0-13.0-0.2","female","19","Australia","7855","25648","imgNWTK/triangle.png","imgNWTK/square.png","imgNWTK/triangle.png","imgNWTK/square.png","noninfo","optim","3.35","{""undefined"":""200""}","","","","","","","","","","","","imgNWTK/triangle.png",""
"5228.799999952316","","","survey-number","76","2077900","0.0-13.0-0.3","female","19","Australia","7855","25648","imgNWTK/triangle.png","imgNWTK/square.png","imgNWTK/triangle.png","imgNWTK/square.png","noninfo","optim","3.35","{""undefined"":""180""}","","","","","","","","","","","","imgNWTK/triangle.png",""
"8291.299999952316","","","survey-number","77","2086197","0.0-13.0-0.4","female","19","Australia","7855","25648","imgNWTK/triangle.png","imgNWTK/square.png","imgNWTK/triangle.png","imgNWTK/square.png","noninfo","optim","3.35","{""undefined"":""200""}","","","","","","","","","","","","imgNWTK/triangle.png",""
"5975.700000047684","","","survey-number","78","2092178","0.0-13.0-0.5","female","19","Australia","7855","25648","imgNWTK/triangle.png","imgNWTK/square.png","imgNWTK/triangle.png","imgNWTK/square.png","noninfo","optim","3.35","{""undefined"":""120""}","","","","","","","","","","","","imgNWTK/triangle.png",""
"3797.2000000476837","","","survey-number","79","2095981","0.0-13.0-0.6","female","19","Australia","7855","25648","imgNWTK/triangle.png","imgNWTK/square.png","imgNWTK/triangle.png","imgNWTK/square.png","noninfo","optim","3.35","{""undefined"":""80""}","","","","","","","","","","","","imgNWTK/triangle.png",""
"3992.2000000476837","","","survey-number","80","2099979","0.0-13.0-0.7","female","19","Australia","7855","25648","imgNWTK/triangle.png","imgNWTK/square.png","imgNWTK/triangle.png","imgNWTK/square.png","noninfo","optim","3.35","{""undefined"":""179""}","","","","","","","","","","","","imgNWTK/triangle.png",""
"4246.5","","","survey-number","81","2104232","0.0-13.0-0.8","female","19","Australia","7855","25648","imgNWTK/triangle.png","imgNWTK/square.png","imgNWTK/triangle.png","imgNWTK/square.png","noninfo","optim","3.35","{""undefined"":""180""}","","","","","","","","","","","","imgNWTK/triangle.png",""
"3995.2000000476837","","","survey-number","82","2108233","0.0-13.0-0.9","female","19","Australia","7855","25648","imgNWTK/triangle.png","imgNWTK/square.png","imgNWTK/triangle.png","imgNWTK/square.png","noninfo","optim","3.35","{""undefined"":""100""}","","","","","","","","","","","","imgNWTK/triangle.png",""
"4683","<p><b>Imagine that you clicked on the below button for another 10 trials (this includes <i> both WIN and NO-WIN trials</i>).</p> <img src= 'imgNWTK/square.png'></img></br></br> <p><b>Please type the reward (number of points) you would expect to receive on every trial.</br> Click start to begin.</p>","0","html-button-response","83","2112919","0.0-14.0","female","19","Australia","7855","25648","imgNWTK/triangle.png","imgNWTK/square.png","imgNWTK/triangle.png","imgNWTK/square.png","noninfo","optim","3.35","","","","","","","","","","","","","",""
"2077.5","","","survey-number","84","2115002","0.0-15.0-0.0","female","19","Australia","7855","25648","imgNWTK/triangle.png","imgNWTK/square.png","imgNWTK/triangle.png","imgNWTK/square.png","noninfo","optim","3.35","{""undefined"":""0""}","","","","","","","","","","","","imgNWTK/square.png",""
"3530.2999999523163","","","survey-number","85","2118535","0.0-15.0-0.1","female","19","Australia","7855","25648","imgNWTK/triangle.png","imgNWTK/square.png","imgNWTK/triangle.png","imgNWTK/square.png","noninfo","optim","3.35","{""undefined"":""180""}","","","","","","","","","","","","imgNWTK/square.png",""
"1971.4000000953674","","","survey-number","86","2120510","0.0-15.0-0.2","female","19","Australia","7855","25648","imgNWTK/triangle.png","imgNWTK/square.png","imgNWTK/triangle.png","imgNWTK/square.png","noninfo","optim","3.35","{""undefined"":""40""}","","","","","","","","","","","","imgNWTK/square.png",""
"2260.7000000476837","","","survey-number","87","2122774","0.0-15.0-0.3","female","19","Australia","7855","25648","imgNWTK/triangle.png","imgNWTK/square.png","imgNWTK/triangle.png","imgNWTK/square.png","noninfo","optim","3.35","{""undefined"":""0""}","","","","","","","","","","","","imgNWTK/square.png",""
"5411.299999952316","","","survey-number","88","2128189","0.0-15.0-0.4","female","19","Australia","7855","25648","imgNWTK/triangle.png","imgNWTK/square.png","imgNWTK/triangle.png","imgNWTK/square.png","noninfo","optim","3.35","{""undefined"":""190""}","","","","","","","","","","","","imgNWTK/square.png",""
"1604.4000000953674","","","survey-number","89","2129797","0.0-15.0-0.5","female","19","Australia","7855","25648","imgNWTK/triangle.png","imgNWTK/square.png","imgNWTK/triangle.png","imgNWTK/square.png","noninfo","optim","3.35","{""undefined"":""200""}","","","","","","","","","","","","imgNWTK/square.png",""
"3690.2999999523163","","","survey-number","90","2133491","0.0-15.0-0.6","female","19","Australia","7855","25648","imgNWTK/triangle.png","imgNWTK/square.png","imgNWTK/triangle.png","imgNWTK/square.png","noninfo","optim","3.35","{""undefined"":""170""}","","","","","","","","","","","","imgNWTK/square.png",""
"1835.4000000953674","","","survey-number","91","2135330","0.0-15.0-0.7","female","19","Australia","7855","25648","imgNWTK/triangle.png","imgNWTK/square.png","imgNWTK/triangle.png","imgNWTK/square.png","noninfo","optim","3.35","{""undefined"":""80""}","","","","","","","","","","","","imgNWTK/square.png",""
"923.5","","","survey-number","92","2136258","0.0-15.0-0.8","female","19","Australia","7855","25648","imgNWTK/triangle.png","imgNWTK/square.png","imgNWTK/triangle.png","imgNWTK/square.png","noninfo","optim","3.35","{""undefined"":""0""}","","","","","","","","","","","","imgNWTK/square.png",""
"1262.8999998569489","","","survey-number","93","2137524","0.0-15.0-0.9","female","19","Australia","7855","25648","imgNWTK/triangle.png","imgNWTK/square.png","imgNWTK/triangle.png","imgNWTK/square.png","noninfo","optim","3.35","{""undefined"":""100""}","","","","","","","","","","","","imgNWTK/square.png",""
"34475.90000009537","","","survey-number","94","2172009","0.0-16.0","female","19","Australia","7855","25648","imgNWTK/triangle.png","imgNWTK/square.png","imgNWTK/triangle.png","imgNWTK/square.png","noninfo","optim","3.35","{""undefined"":""400""}","","","","","","","","","","","","","imgNWTK/triangle.png"
"5582.5","","","survey-number","95","2177598","0.0-17.0","female","19","Australia","7855","25648","imgNWTK/triangle.png","imgNWTK/square.png","imgNWTK/triangle.png","imgNWTK/square.png","noninfo","optim","3.35","{""undefined"":""200""}","","","","","","","","","","","","","imgNWTK/square.png"
"46811","<p style=""text-align:left;"">Great! We are almost at the end of the study... (Please do not close the browser window yet.)</p><p> Your final points balance is 3347, which equals to a bonus payment of $3.35. Please collect your payment from Mathews Building Room 721 (Mon-Fri 9am-5pm); please email amy.x.li@unsw.edu.au at least 24 hours prior to collection so that this is ready for you.</p><p style=""text-align:left;"">To view the debriefing form, please click <a href=""./imgNWTK/debrief_3205.pdf"" target=""_blank"">here</a> to download a copy.</p><p style=""text-align:left;"">Then, <b>please click the below button</b> to confirm that you have received your debrief and to complete the study. Upon clicking ""Finish!"", your SONA credit will be automatically assigned.</p>","0","html-button-response","96","2224412","0.0-18.0","female","19","Australia","7855","25648","imgNWTK/triangle.png","imgNWTK/square.png","imgNWTK/triangle.png","imgNWTK/square.png","noninfo","optim","3.35","","","","","","","","","","","","","",""
