"rt","stimulus","button_pressed","trial_type","trial_index","time_elapsed","internal_node_id","gender","age","language","PID","sona_id","subStim","optStim","stim1","stim2","infoCond","optimCond","bonus","responses","banditTrial","choice","cue","feedback","estimateData","leftOption","rightOption","choiceName","leftInput","rightInput","key_press","postQ","singleEst"
"8679","<p>Thank you for signing up to participate in SONA Study 465! <br> During this study, please focus on the experiment and refrain from activities such as:</p>- <b>Switching to other tabs on your browser (this will be monitored via the experiment)</br> - Using your mobile phone/cell phone</br> - Communicating with others</br></br></b><p>This way, you are helping to provide data that is useful for psychological research. We thank you for your cooperation!</p>","0","html-button-response","0","8680","0.0-0.0","male","21","Australia","82520","26514","neither","neither","imgNWTK/square.png","imgNWTK/triangle.png","noninfo","eq","3.07","","","","","","","","","","","","","",""
"4095","<p>Welcome to the experiment!</p><p>You will now read some instructions about the task. Press the 'Next' button to continue. </p>","0","html-button-response","1","12776","0.0-1.0","male","21","Australia","82520","26514","neither","neither","imgNWTK/square.png","imgNWTK/triangle.png","noninfo","eq","3.07","","","","","","","","","","","","","",""
"7130","<p> On each trial throughout the experiment you will choose between two options, </br>a <b>Black Square </b> and <b> Black Triangle </b>, as seen below.</p><div><div style= 'float: left; width: 300px; margin: 10px 10px;'><img src= 'imgNWTK/square.png'></img></div><div style= 'float: right; width: 300px; margin: 10px 10px;'><img src= 'imgNWTK/triangle.png'></img></div></div><br/><br/><br/><br/><br/><br/><br/><br/><br/><br/><br/><p>Each option results in winning points or receiving 0 points.</br>There is a 50% chance of either winning or receiving 0 points.</p><p>You won't receive the outcome until after a <b> 20 second delay</b>.</p>","0","html-button-response","2","19906","0.0-2.0-0.0","male","21","Australia","82520","26514","neither","neither","imgNWTK/square.png","imgNWTK/triangle.png","noninfo","eq","3.07","","","","","","","","","","","","","",""
"41510","<img src= 'imgNWTK/NonInfoDiagram.png'></img><p>As seen above, whether you choose the square or triangle, you will receive a coloured circle after the choice. </p> <p>This circle will be on screen for 20 seconds until you win points or receive 0 points.</p><p>The coloured circle depends on which option you chose. </br> In the above example, choosing a triangle leads to a green circle and choosing the square leads to a red circle.</p>Please note: the circles in your task will be different to the above colours.</br></br>","0","html-button-response","3","61417","0.0-2.0-1.0","male","21","Australia","82520","26514","neither","neither","imgNWTK/square.png","imgNWTK/triangle.png","noninfo","eq","3.07","","","","","","","","","","","","","",""
"6088","<img src= 'cues/winTrials_noInfo.png' width = '1200'></img><p>To reiterate, 50% of the outcomes of each option will be WIN TRIALS, and the other 50% will be NO-WIN TRIALS.","0","html-button-response","4","67505","0.0-2.0-2.0","male","21","Australia","82520","26514","neither","neither","imgNWTK/square.png","imgNWTK/triangle.png","noninfo","eq","3.07","","","","","","","","","","","","","",""
"19420","<p> There will be <b>four blocks</b> in the experiment.</br>You will be given a short 15 second break between each block.</p><p><b>The points and the options will remain the same between the blocks.</b></p>The blocks are there just to give you a small break.</br></br></br></br><p>The points you earn in the task are also equal to <b> actual money</b>.</br> <b>1000 points is equal to $1 AUD</b></p><p>This is the rate you will be paid at the experiment's end.","0","html-button-response","5","86925","0.0-2.0-3.0","male","21","Australia","82520","26514","neither","neither","imgNWTK/square.png","imgNWTK/triangle.png","noninfo","eq","3.07","","","","","","","","","","","","","",""
"15637","","","survey-multi-choice","6","102564","0.0-2.0-4.0","male","21","Australia","82520","26514","neither","neither","imgNWTK/square.png","imgNWTK/triangle.png","noninfo","eq","3.07","{""Q0"":""20 Seconds"",""Q1"":""True"",""Q2"":""Equally""}","","","","","","","","","","","","",""
"20157","<p> Well done, all your answers were correct! <br> The experiment is about to start now. <br/> Click start to continue, or email your researcher <b>(amy.x.li@unsw.edu.au)</b> if you have any questions before starting.","0","html-button-response","7","122723","0.0-3.0","male","21","Australia","82520","26514","neither","neither","imgNWTK/square.png","imgNWTK/triangle.png","noninfo","eq","3.07","","","","","","","","","","","","","",""
"3622","","","bandit-task-exp6","8","148251","0.0-4.0-0.0","male","21","Australia","82520","26514","neither","neither","imgNWTK/square.png","imgNWTK/triangle.png","noninfo","eq","3.07","","1","2","1","0","null","imgNWTK/triangle.png","imgNWTK/square.png","imgNWTK/triangle.png","NaN","NaN","","",""
"1978","","","bandit-task-exp6","9","172248","0.0-4.0-0.1","male","21","Australia","82520","26514","neither","neither","imgNWTK/square.png","imgNWTK/triangle.png","noninfo","eq","3.07","","2","2","2","98","null","imgNWTK/square.png","imgNWTK/triangle.png","imgNWTK/triangle.png","NaN","NaN","","",""
"1749","","","bandit-task-exp6","10","195971","0.0-4.0-0.2","male","21","Australia","82520","26514","neither","neither","imgNWTK/square.png","imgNWTK/triangle.png","noninfo","eq","3.07","","3","2","2","106","null","imgNWTK/square.png","imgNWTK/triangle.png","imgNWTK/triangle.png","NaN","NaN","","",""
"957","","","bandit-task-exp6","11","219978","0.0-4.0-0.3","male","21","Australia","82520","26514","neither","neither","imgNWTK/square.png","imgNWTK/triangle.png","noninfo","eq","3.07","","4","2","2","105","null","imgNWTK/triangle.png","imgNWTK/square.png","imgNWTK/triangle.png","NaN","NaN","","",""
"1456","","","bandit-task-exp6","12","243231","0.0-4.0-0.4","male","21","Australia","82520","26514","neither","neither","imgNWTK/square.png","imgNWTK/triangle.png","noninfo","eq","3.07","","5","2","2","100","null","imgNWTK/triangle.png","imgNWTK/square.png","imgNWTK/triangle.png","NaN","NaN","","",""
"1269","","","bandit-task-exp6","13","266806","0.0-4.0-0.5","male","21","Australia","82520","26514","neither","neither","imgNWTK/square.png","imgNWTK/triangle.png","noninfo","eq","3.07","","6","2","1","0","null","imgNWTK/square.png","imgNWTK/triangle.png","imgNWTK/triangle.png","NaN","NaN","","",""
"981","","","bandit-task-exp6","14","289825","0.0-4.0-0.6","male","21","Australia","82520","26514","neither","neither","imgNWTK/square.png","imgNWTK/triangle.png","noninfo","eq","3.07","","7","1","1","108","null","imgNWTK/triangle.png","imgNWTK/square.png","imgNWTK/square.png","NaN","NaN","","",""
"670","","","bandit-task-exp6","15","313293","0.0-4.0-0.7","male","21","Australia","82520","26514","neither","neither","imgNWTK/square.png","imgNWTK/triangle.png","noninfo","eq","3.07","","8","1","2","0","null","imgNWTK/square.png","imgNWTK/triangle.png","imgNWTK/square.png","NaN","NaN","","",""
"1525","","","bandit-task-exp6","16","336799","0.0-4.0-0.8","male","21","Australia","82520","26514","neither","neither","imgNWTK/square.png","imgNWTK/triangle.png","noninfo","eq","3.07","","9","1","2","0","null","imgNWTK/triangle.png","imgNWTK/square.png","imgNWTK/square.png","NaN","NaN","","",""
"627","","","bandit-task-exp6","17","359752","0.0-4.0-0.9","male","21","Australia","82520","26514","neither","neither","imgNWTK/square.png","imgNWTK/triangle.png","noninfo","eq","3.07","","10","1","2","0","null","imgNWTK/triangle.png","imgNWTK/square.png","imgNWTK/square.png","NaN","NaN","","",""
"716","","","bandit-task-exp6","18","383732","0.0-4.0-0.10","male","21","Australia","82520","26514","neither","neither","imgNWTK/square.png","imgNWTK/triangle.png","noninfo","eq","3.07","","11","1","1","109","null","imgNWTK/square.png","imgNWTK/triangle.png","imgNWTK/square.png","NaN","NaN","","",""
"646","","","bandit-task-exp6","19","406677","0.0-4.0-0.11","male","21","Australia","82520","26514","neither","neither","imgNWTK/square.png","imgNWTK/triangle.png","noninfo","eq","3.07","","12","1","2","0","null","imgNWTK/square.png","imgNWTK/triangle.png","imgNWTK/square.png","NaN","NaN","","",""
"1551","","","bandit-task-exp6","20","430394","0.0-4.0-0.12","male","21","Australia","82520","26514","neither","neither","imgNWTK/square.png","imgNWTK/triangle.png","noninfo","eq","3.07","","13","2","2","99","null","imgNWTK/square.png","imgNWTK/triangle.png","imgNWTK/triangle.png","NaN","NaN","","",""
"632","","","bandit-task-exp6","21","453577","0.0-4.0-0.13","male","21","Australia","82520","26514","neither","neither","imgNWTK/square.png","imgNWTK/triangle.png","noninfo","eq","3.07","","14","2","2","105","null","imgNWTK/square.png","imgNWTK/triangle.png","imgNWTK/triangle.png","NaN","NaN","","",""
"846","","","bandit-task-exp6","22","476286","0.0-4.0-0.14","male","21","Australia","82520","26514","neither","neither","imgNWTK/square.png","imgNWTK/triangle.png","noninfo","eq","3.07","","15","2","1","0","null","imgNWTK/triangle.png","imgNWTK/square.png","imgNWTK/triangle.png","NaN","NaN","","",""
"null","<p><b> Congratulations, you have finished this block. </b> </p><p>Please take a short break before moving onto the next block.</p><p>The next block will start after a 15 second break.</p><b>Remember, the point rewards are the same between blocks","","html-keyboard-response","23","491302","0.0-5.0","male","21","Australia","82520","26514","neither","neither","imgNWTK/square.png","imgNWTK/triangle.png","noninfo","eq","3.07","","","","","","","","","","","","null","",""
"4960","","","bandit-task-exp6","24","518931","0.0-6.0-0.0","male","21","Australia","82520","26514","neither","neither","imgNWTK/square.png","imgNWTK/triangle.png","noninfo","eq","3.07","","16","2","2","110","null","imgNWTK/square.png","imgNWTK/triangle.png","imgNWTK/triangle.png","NaN","NaN","","",""
"646","","","bandit-task-exp6","25","542501","0.0-6.0-0.1","male","21","Australia","82520","26514","neither","neither","imgNWTK/square.png","imgNWTK/triangle.png","noninfo","eq","3.07","","17","2","1","0","null","imgNWTK/square.png","imgNWTK/triangle.png","imgNWTK/triangle.png","NaN","NaN","","",""
"2373","","","bandit-task-exp6","26","567713","0.0-6.0-0.2","male","21","Australia","82520","26514","neither","neither","imgNWTK/square.png","imgNWTK/triangle.png","noninfo","eq","3.07","","18","1","1","92","null","imgNWTK/square.png","imgNWTK/triangle.png","imgNWTK/square.png","NaN","NaN","","",""
"885","","","bandit-task-exp6","27","590590","0.0-6.0-0.3","male","21","Australia","82520","26514","neither","neither","imgNWTK/square.png","imgNWTK/triangle.png","noninfo","eq","3.07","","19","1","2","0","null","imgNWTK/square.png","imgNWTK/triangle.png","imgNWTK/square.png","NaN","NaN","","",""
"709","","","bandit-task-exp6","28","613299","0.0-6.0-0.4","male","21","Australia","82520","26514","neither","neither","imgNWTK/square.png","imgNWTK/triangle.png","noninfo","eq","3.07","","20","1","1","108","null","imgNWTK/square.png","imgNWTK/triangle.png","imgNWTK/square.png","NaN","NaN","","",""
"746","","","bandit-task-exp6","29","635817","0.0-6.0-0.5","male","21","Australia","82520","26514","neither","neither","imgNWTK/square.png","imgNWTK/triangle.png","noninfo","eq","3.07","","21","1","2","0","null","imgNWTK/square.png","imgNWTK/triangle.png","imgNWTK/square.png","NaN","NaN","","",""
"408","","","bandit-task-exp6","30","659129","0.0-6.0-0.6","male","21","Australia","82520","26514","neither","neither","imgNWTK/square.png","imgNWTK/triangle.png","noninfo","eq","3.07","","22","2","2","108","null","imgNWTK/triangle.png","imgNWTK/square.png","imgNWTK/triangle.png","NaN","NaN","","",""
"833","","","bandit-task-exp6","31","682128","0.0-6.0-0.7","male","21","Australia","82520","26514","neither","neither","imgNWTK/square.png","imgNWTK/triangle.png","noninfo","eq","3.07","","23","1","2","0","null","imgNWTK/triangle.png","imgNWTK/square.png","imgNWTK/square.png","NaN","NaN","","",""
"827","","","bandit-task-exp6","32","705489","0.0-6.0-0.8","male","21","Australia","82520","26514","neither","neither","imgNWTK/square.png","imgNWTK/triangle.png","noninfo","eq","3.07","","24","1","2","0","null","imgNWTK/square.png","imgNWTK/triangle.png","imgNWTK/square.png","NaN","NaN","","",""
"873","","","bandit-task-exp6","33","728653","0.0-6.0-0.9","male","21","Australia","82520","26514","neither","neither","imgNWTK/square.png","imgNWTK/triangle.png","noninfo","eq","3.07","","25","1","2","0","null","imgNWTK/square.png","imgNWTK/triangle.png","imgNWTK/square.png","NaN","NaN","","",""
"1013","","","bandit-task-exp6","34","752205","0.0-6.0-0.10","male","21","Australia","82520","26514","neither","neither","imgNWTK/square.png","imgNWTK/triangle.png","noninfo","eq","3.07","","26","2","2","96","null","imgNWTK/square.png","imgNWTK/triangle.png","imgNWTK/triangle.png","NaN","NaN","","",""
"732","","","bandit-task-exp6","35","774936","0.0-6.0-0.11","male","21","Australia","82520","26514","neither","neither","imgNWTK/square.png","imgNWTK/triangle.png","noninfo","eq","3.07","","27","2","1","0","null","imgNWTK/square.png","imgNWTK/triangle.png","imgNWTK/triangle.png","NaN","NaN","","",""
"510","","","bandit-task-exp6","36","797460","0.0-6.0-0.12","male","21","Australia","82520","26514","neither","neither","imgNWTK/square.png","imgNWTK/triangle.png","noninfo","eq","3.07","","28","2","2","108","null","imgNWTK/square.png","imgNWTK/triangle.png","imgNWTK/triangle.png","NaN","NaN","","",""
"742","","","bandit-task-exp6","37","820884","0.0-6.0-0.13","male","21","Australia","82520","26514","neither","neither","imgNWTK/square.png","imgNWTK/triangle.png","noninfo","eq","3.07","","29","2","2","100","null","imgNWTK/square.png","imgNWTK/triangle.png","imgNWTK/triangle.png","NaN","NaN","","",""
"1024","","","bandit-task-exp6","38","844479","0.0-6.0-0.14","male","21","Australia","82520","26514","neither","neither","imgNWTK/square.png","imgNWTK/triangle.png","noninfo","eq","3.07","","30","2","1","0","null","imgNWTK/triangle.png","imgNWTK/square.png","imgNWTK/triangle.png","NaN","NaN","","",""
"null","<p><b> Congratulations, you have finished this block. </b> </p><p>Please take a short break before moving onto the next block.</p><p>The next block will start after a 15 second break.</p><b>Remember, the point rewards are the same between blocks","","html-keyboard-response","39","859481","0.0-7.0","male","21","Australia","82520","26514","neither","neither","imgNWTK/square.png","imgNWTK/triangle.png","noninfo","eq","3.07","","","","","","","","","","","","null","",""
"1243","","","bandit-task-exp6","40","882737","0.0-8.0-0.0","male","21","Australia","82520","26514","neither","neither","imgNWTK/square.png","imgNWTK/triangle.png","noninfo","eq","3.07","","31","2","1","0","null","imgNWTK/triangle.png","imgNWTK/square.png","imgNWTK/triangle.png","NaN","NaN","","",""
"558","","","bandit-task-exp6","41","905619","0.0-8.0-0.1","male","21","Australia","82520","26514","neither","neither","imgNWTK/square.png","imgNWTK/triangle.png","noninfo","eq","3.07","","32","2","2","91","null","imgNWTK/triangle.png","imgNWTK/square.png","imgNWTK/triangle.png","NaN","NaN","","",""
"833","","","bandit-task-exp6","42","928783","0.0-8.0-0.2","male","21","Australia","82520","26514","neither","neither","imgNWTK/square.png","imgNWTK/triangle.png","noninfo","eq","3.07","","33","2","1","0","null","imgNWTK/triangle.png","imgNWTK/square.png","imgNWTK/triangle.png","NaN","NaN","","",""
"555","","","bandit-task-exp6","43","951471","0.0-8.0-0.3","male","21","Australia","82520","26514","neither","neither","imgNWTK/square.png","imgNWTK/triangle.png","noninfo","eq","3.07","","34","2","2","106","null","imgNWTK/triangle.png","imgNWTK/square.png","imgNWTK/triangle.png","NaN","NaN","","",""
"815","","","bandit-task-exp6","44","974126","0.0-8.0-0.4","male","21","Australia","82520","26514","neither","neither","imgNWTK/square.png","imgNWTK/triangle.png","noninfo","eq","3.07","","35","2","1","0","null","imgNWTK/triangle.png","imgNWTK/square.png","imgNWTK/triangle.png","NaN","NaN","","",""
"739","","","bandit-task-exp6","45","998200","0.0-8.0-0.5","male","21","Australia","82520","26514","neither","neither","imgNWTK/square.png","imgNWTK/triangle.png","noninfo","eq","3.07","","36","2","1","0","null","imgNWTK/triangle.png","imgNWTK/square.png","imgNWTK/triangle.png","NaN","NaN","","",""
"1582","","","bandit-task-exp6","46","1022221","0.0-8.0-0.6","male","21","Australia","82520","26514","neither","neither","imgNWTK/square.png","imgNWTK/triangle.png","noninfo","eq","3.07","","37","1","2","0","null","imgNWTK/square.png","imgNWTK/triangle.png","imgNWTK/square.png","NaN","NaN","","",""
"555","","","bandit-task-exp6","47","1045882","0.0-8.0-0.7","male","21","Australia","82520","26514","neither","neither","imgNWTK/square.png","imgNWTK/triangle.png","noninfo","eq","3.07","","38","1","1","107","null","imgNWTK/square.png","imgNWTK/triangle.png","imgNWTK/square.png","NaN","NaN","","",""
"1698","","","bandit-task-exp6","48","1069515","0.0-8.0-0.8","male","21","Australia","82520","26514","neither","neither","imgNWTK/square.png","imgNWTK/triangle.png","noninfo","eq","3.07","","39","1","1","102","null","imgNWTK/square.png","imgNWTK/triangle.png","imgNWTK/square.png","NaN","NaN","","",""
"1179","","","bandit-task-exp6","49","1094104","0.0-8.0-0.9","male","21","Australia","82520","26514","neither","neither","imgNWTK/square.png","imgNWTK/triangle.png","noninfo","eq","3.07","","40","1","1","104","null","imgNWTK/triangle.png","imgNWTK/square.png","imgNWTK/square.png","NaN","NaN","","",""
"1327","","","bandit-task-exp6","50","1117750","0.0-8.0-0.10","male","21","Australia","82520","26514","neither","neither","imgNWTK/square.png","imgNWTK/triangle.png","noninfo","eq","3.07","","41","1","2","0","null","imgNWTK/square.png","imgNWTK/triangle.png","imgNWTK/square.png","NaN","NaN","","",""
"913","","","bandit-task-exp6","51","1150678","0.0-8.0-0.11","male","21","Australia","82520","26514","neither","neither","imgNWTK/square.png","imgNWTK/triangle.png","noninfo","eq","3.07","","42","1","1","91","null","imgNWTK/triangle.png","imgNWTK/square.png","imgNWTK/square.png","NaN","NaN","","",""
"925","","","bandit-task-exp6","52","1173884","0.0-8.0-0.12","male","21","Australia","82520","26514","neither","neither","imgNWTK/square.png","imgNWTK/triangle.png","noninfo","eq","3.07","","43","1","1","105","null","imgNWTK/square.png","imgNWTK/triangle.png","imgNWTK/square.png","NaN","NaN","","",""
"984","","","bandit-task-exp6","53","1196740","0.0-8.0-0.13","male","21","Australia","82520","26514","neither","neither","imgNWTK/square.png","imgNWTK/triangle.png","noninfo","eq","3.07","","44","1","2","0","null","imgNWTK/triangle.png","imgNWTK/square.png","imgNWTK/square.png","NaN","NaN","","",""
"496","","","bandit-task-exp6","54","1219156","0.0-8.0-0.14","male","21","Australia","82520","26514","neither","neither","imgNWTK/square.png","imgNWTK/triangle.png","noninfo","eq","3.07","","45","1","1","93","null","imgNWTK/triangle.png","imgNWTK/square.png","imgNWTK/square.png","NaN","NaN","","",""
"null","<p><b> Congratulations, you have finished this block. </b> </p><p>Please take a short break before moving onto the next block.</p><p>The next block will start after a 15 second break.</p><b>Remember, the point rewards are the same between blocks","","html-keyboard-response","55","1234158","0.0-9.0","male","21","Australia","82520","26514","neither","neither","imgNWTK/square.png","imgNWTK/triangle.png","noninfo","eq","3.07","","","","","","","","","","","","null","",""
"29946","","","bandit-task-exp6","56","1285748","0.0-10.0-0.0","male","21","Australia","82520","26514","neither","neither","imgNWTK/square.png","imgNWTK/triangle.png","noninfo","eq","3.07","","46","2","2","99","null","imgNWTK/triangle.png","imgNWTK/square.png","imgNWTK/triangle.png","102","100","","",""
"13273","","","bandit-task-exp6","57","1321846","0.0-10.0-0.1","male","21","Australia","82520","26514","neither","neither","imgNWTK/square.png","imgNWTK/triangle.png","noninfo","eq","3.07","","47","2","2","97","null","imgNWTK/triangle.png","imgNWTK/square.png","imgNWTK/triangle.png","102","100","","",""
"8138","","","bandit-task-exp6","58","1351947","0.0-10.0-0.2","male","21","Australia","82520","26514","neither","neither","imgNWTK/square.png","imgNWTK/triangle.png","noninfo","eq","3.07","","48","2","1","0","null","imgNWTK/triangle.png","imgNWTK/square.png","imgNWTK/triangle.png","102","100","","",""
"6935","","","bandit-task-exp6","59","1380556","0.0-10.0-0.3","male","21","Australia","82520","26514","neither","neither","imgNWTK/square.png","imgNWTK/triangle.png","noninfo","eq","3.07","","49","2","1","0","null","imgNWTK/square.png","imgNWTK/triangle.png","imgNWTK/triangle.png","100","102","","",""
"5115","","","bandit-task-exp6","60","1407346","0.0-10.0-0.4","male","21","Australia","82520","26514","neither","neither","imgNWTK/square.png","imgNWTK/triangle.png","noninfo","eq","3.07","","50","2","1","0","null","imgNWTK/square.png","imgNWTK/triangle.png","imgNWTK/triangle.png","100","102","","",""
"6142","","","bandit-task-exp6","61","1435826","0.0-10.0-0.5","male","21","Australia","82520","26514","neither","neither","imgNWTK/square.png","imgNWTK/triangle.png","noninfo","eq","3.07","","51","2","2","102","null","imgNWTK/triangle.png","imgNWTK/square.png","imgNWTK/triangle.png","102","100","","",""
"7849","","","bandit-task-exp6","62","1471160","0.0-10.0-0.6","male","21","Australia","82520","26514","neither","neither","imgNWTK/square.png","imgNWTK/triangle.png","noninfo","eq","3.07","","52","2","2","105","null","imgNWTK/triangle.png","imgNWTK/square.png","imgNWTK/triangle.png","102","100","","",""
"14492","","","bandit-task-exp6","63","1507486","0.0-10.0-0.7","male","21","Australia","82520","26514","neither","neither","imgNWTK/square.png","imgNWTK/triangle.png","noninfo","eq","3.07","","53","2","1","0","null","imgNWTK/triangle.png","imgNWTK/square.png","imgNWTK/triangle.png","102","100","","",""
"6158","","","bandit-task-exp6","64","1535682","0.0-10.0-0.8","male","21","Australia","82520","26514","neither","neither","imgNWTK/square.png","imgNWTK/triangle.png","noninfo","eq","3.07","","54","2","1","0","null","imgNWTK/square.png","imgNWTK/triangle.png","imgNWTK/triangle.png","100","102","","",""
"7324","","","bandit-task-exp6","65","1564475","0.0-10.0-0.9","male","21","Australia","82520","26514","neither","neither","imgNWTK/square.png","imgNWTK/triangle.png","noninfo","eq","3.07","","55","2","1","0","null","imgNWTK/triangle.png","imgNWTK/square.png","imgNWTK/triangle.png","102","100","","",""
"4396","","","bandit-task-exp6","66","1592605","0.0-10.0-0.10","male","21","Australia","82520","26514","neither","neither","imgNWTK/square.png","imgNWTK/triangle.png","noninfo","eq","3.07","","56","2","2","101","null","imgNWTK/square.png","imgNWTK/triangle.png","imgNWTK/triangle.png","100","102","","",""
"5895","","","bandit-task-exp6","67","1620728","0.0-10.0-0.11","male","21","Australia","82520","26514","neither","neither","imgNWTK/square.png","imgNWTK/triangle.png","noninfo","eq","3.07","","57","2","1","0","null","imgNWTK/triangle.png","imgNWTK/square.png","imgNWTK/triangle.png","102","100","","",""
"4238","","","bandit-task-exp6","68","1650066","0.0-10.0-0.12","male","21","Australia","82520","26514","neither","neither","imgNWTK/square.png","imgNWTK/triangle.png","noninfo","eq","3.07","","58","2","2","107","null","imgNWTK/square.png","imgNWTK/triangle.png","imgNWTK/triangle.png","100","102","","",""
"26832","","","bandit-task-exp6","69","1698777","0.0-10.0-0.13","male","21","Australia","82520","26514","neither","neither","imgNWTK/square.png","imgNWTK/triangle.png","noninfo","eq","3.07","","59","2","1","0","null","imgNWTK/triangle.png","imgNWTK/square.png","imgNWTK/triangle.png","102","100","","",""
"4721","","","bandit-task-exp6","70","1733335","0.0-10.0-0.14","male","21","Australia","82520","26514","neither","neither","imgNWTK/square.png","imgNWTK/triangle.png","noninfo","eq","3.07","","60","2","2","110","null","imgNWTK/triangle.png","imgNWTK/square.png","imgNWTK/triangle.png","102","100","","",""
"2958","<p> Congratulations, you have finished the main part of the experiment. </p><p>Before you finish, we have a few short questions about the options and outcomes you saw in the task.</p>","0","html-button-response","71","1736294","0.0-11.0","male","21","Australia","82520","26514","neither","neither","imgNWTK/square.png","imgNWTK/triangle.png","noninfo","eq","3.07","","","","","","","","","","","","","",""
"9335","<p><b>Now, imagine that you clicked on the below button for another 10 trials (this includes <i> BOTH WIN and NO-WIN trials</i>).</p> <img src= 'imgNWTK/triangle.png'></img></br></br> <p><b>Please type the reward (number of points) you would expect to receive on every trial.</br> Click start to begin.</p>","0","html-button-response","72","1745630","0.0-12.0","male","21","Australia","82520","26514","neither","neither","imgNWTK/square.png","imgNWTK/triangle.png","noninfo","eq","3.07","","","","","","","","","","","","","",""
"19799.20000001788","","","survey-number","73","1765431","0.0-13.0-0.0","male","21","Australia","82520","26514","neither","neither","imgNWTK/square.png","imgNWTK/triangle.png","noninfo","eq","3.07","{""undefined"":""510""}","","","","","","","","","","","","imgNWTK/triangle.png",""
"19849.69999998808","","","survey-number","74","1785282","0.0-13.0-0.1","male","21","Australia","82520","26514","neither","neither","imgNWTK/square.png","imgNWTK/triangle.png","noninfo","eq","3.07","{""undefined"":""0""}","","","","","","","","","","","","imgNWTK/triangle.png",""
"633.5","","","survey-number","75","1785917","0.0-13.0-0.2","male","21","Australia","82520","26514","neither","neither","imgNWTK/square.png","imgNWTK/triangle.png","noninfo","eq","3.07","{""undefined"":""0""}","","","","","","","","","","","","imgNWTK/triangle.png",""
"625.9000000059605","","","survey-number","76","1786544","0.0-13.0-0.3","male","21","Australia","82520","26514","neither","neither","imgNWTK/square.png","imgNWTK/triangle.png","noninfo","eq","3.07","{""undefined"":""0""}","","","","","","","","","","","","imgNWTK/triangle.png",""
"559.7999999821186","","","survey-number","77","1787105","0.0-13.0-0.4","male","21","Australia","82520","26514","neither","neither","imgNWTK/square.png","imgNWTK/triangle.png","noninfo","eq","3.07","{""undefined"":""0""}","","","","","","","","","","","","imgNWTK/triangle.png",""
"503","","","survey-number","78","1787609","0.0-13.0-0.5","male","21","Australia","82520","26514","neither","neither","imgNWTK/square.png","imgNWTK/triangle.png","noninfo","eq","3.07","{""undefined"":""0""}","","","","","","","","","","","","imgNWTK/triangle.png",""
"460.69999998807907","","","survey-number","79","1788071","0.0-13.0-0.6","male","21","Australia","82520","26514","neither","neither","imgNWTK/square.png","imgNWTK/triangle.png","noninfo","eq","3.07","{""undefined"":""0""}","","","","","","","","","","","","imgNWTK/triangle.png",""
"411.7999999821186","","","survey-number","80","1788484","0.0-13.0-0.7","male","21","Australia","82520","26514","neither","neither","imgNWTK/square.png","imgNWTK/triangle.png","noninfo","eq","3.07","{""undefined"":""0""}","","","","","","","","","","","","imgNWTK/triangle.png",""
"397.7999999821186","","","survey-number","81","1788883","0.0-13.0-0.8","male","21","Australia","82520","26514","neither","neither","imgNWTK/square.png","imgNWTK/triangle.png","noninfo","eq","3.07","{""undefined"":""0""}","","","","","","","","","","","","imgNWTK/triangle.png",""
"585.1000000238419","","","survey-number","82","1789469","0.0-13.0-0.9","male","21","Australia","82520","26514","neither","neither","imgNWTK/square.png","imgNWTK/triangle.png","noninfo","eq","3.07","{""undefined"":""0""}","","","","","","","","","","","","imgNWTK/triangle.png",""
"5836","<p><b>Imagine that you clicked on the below button for another 10 trials (this includes <i> both WIN and NO-WIN trials</i>).</p> <img src= 'imgNWTK/square.png'></img></br></br> <p><b>Please type the reward (number of points) you would expect to receive on every trial.</br> Click start to begin.</p>","0","html-button-response","83","1795305","0.0-14.0","male","21","Australia","82520","26514","neither","neither","imgNWTK/square.png","imgNWTK/triangle.png","noninfo","eq","3.07","","","","","","","","","","","","","",""
"3981.800000011921","","","survey-number","84","1799288","0.0-15.0-0.0","male","21","Australia","82520","26514","neither","neither","imgNWTK/square.png","imgNWTK/triangle.png","noninfo","eq","3.07","{""undefined"":""100""}","","","","","","","","","","","","imgNWTK/square.png",""
"1573.8999999761581","","","survey-number","85","1800863","0.0-15.0-0.1","male","21","Australia","82520","26514","neither","neither","imgNWTK/square.png","imgNWTK/triangle.png","noninfo","eq","3.07","{""undefined"":""100""}","","","","","","","","","","","","imgNWTK/square.png",""
"1510.0999999940395","","","survey-number","86","1802374","0.0-15.0-0.2","male","21","Australia","82520","26514","neither","neither","imgNWTK/square.png","imgNWTK/triangle.png","noninfo","eq","3.07","{""undefined"":""100""}","","","","","","","","","","","","imgNWTK/square.png",""
"1627.699999988079","","","survey-number","87","1804003","0.0-15.0-0.3","male","21","Australia","82520","26514","neither","neither","imgNWTK/square.png","imgNWTK/triangle.png","noninfo","eq","3.07","{""undefined"":""100""}","","","","","","","","","","","","imgNWTK/square.png",""
"1848.0999999940395","","","survey-number","88","1805852","0.0-15.0-0.4","male","21","Australia","82520","26514","neither","neither","imgNWTK/square.png","imgNWTK/triangle.png","noninfo","eq","3.07","{""undefined"":""100""}","","","","","","","","","","","","imgNWTK/square.png",""
"1815.699999988079","","","survey-number","89","1807669","0.0-15.0-0.5","male","21","Australia","82520","26514","neither","neither","imgNWTK/square.png","imgNWTK/triangle.png","noninfo","eq","3.07","{""undefined"":""100""}","","","","","","","","","","","","imgNWTK/square.png",""
"2031.0999999940395","","","survey-number","90","1809701","0.0-15.0-0.6","male","21","Australia","82520","26514","neither","neither","imgNWTK/square.png","imgNWTK/triangle.png","noninfo","eq","3.07","{""undefined"":""100""}","","","","","","","","","","","","imgNWTK/square.png",""
"1583.9000000059605","","","survey-number","91","1811286","0.0-15.0-0.7","male","21","Australia","82520","26514","neither","neither","imgNWTK/square.png","imgNWTK/triangle.png","noninfo","eq","3.07","{""undefined"":""100""}","","","","","","","","","","","","imgNWTK/square.png",""
"3151","","","survey-number","92","1814438","0.0-15.0-0.8","male","21","Australia","82520","26514","neither","neither","imgNWTK/square.png","imgNWTK/triangle.png","noninfo","eq","3.07","{""undefined"":""100""}","","","","","","","","","","","","imgNWTK/square.png",""
"3084.600000023842","","","survey-number","93","1817524","0.0-15.0-0.9","male","21","Australia","82520","26514","neither","neither","imgNWTK/square.png","imgNWTK/triangle.png","noninfo","eq","3.07","{""undefined"":""100""}","","","","","","","","","","","","imgNWTK/square.png",""
"15668.90000000596","","","survey-number","94","1833198","0.0-16.0","male","21","Australia","82520","26514","neither","neither","imgNWTK/square.png","imgNWTK/triangle.png","noninfo","eq","3.07","{""undefined"":""102""}","","","","","","","","","","","","","imgNWTK/triangle.png"
"5459.800000011921","","","survey-number","95","1838659","0.0-17.0","male","21","Australia","82520","26514","neither","neither","imgNWTK/square.png","imgNWTK/triangle.png","noninfo","eq","3.07","{""undefined"":""100""}","","","","","","","","","","","","","imgNWTK/square.png"
"33329","<p style=""text-align:left;"">Great! We are almost at the end of the study... (Please do not close the browser window yet.)</p><p> Your final points balance is 3072, which equals to a bonus payment of $3.07. Please collect your payment from Mathews Building Room 721 (Mon-Fri 9am-5pm); please email amy.x.li@unsw.edu.au at least 24 hours prior to collection so that this is ready for you.</p><p style=""text-align:left;"">To view the debriefing form, please click <a href=""./imgNWTK/debrief_3205.pdf"" target=""_blank"">here</a> to download a copy.</p><p style=""text-align:left;"">Then, <b>please click the below button</b> to confirm that you have received your debrief and to complete the study. Upon clicking ""Finish!"", your SONA credit will be automatically assigned.</p>","0","html-button-response","96","1871989","0.0-18.0","male","21","Australia","82520","26514","neither","neither","imgNWTK/square.png","imgNWTK/triangle.png","noninfo","eq","3.07","","","","","","","","","","","","","",""
