"rt","stimulus","button_pressed","trial_type","trial_index","time_elapsed","internal_node_id","gender","age","language","PID","sona_id","subStim","optStim","stim1","stim2","infoCond","optimCond","bonus","responses","banditTrial","choice","cue","feedback","estimateData","leftOption","rightOption","choiceName","leftInput","rightInput","key_press","postQ","singleEst"
"1471","<p>Thank you for signing up to participate in SONA Study 465! <br> During this study, please focus on the experiment and refrain from activities such as:</p>- <b>Switching to other tabs on your browser (this will be monitored via the experiment)</br> - Using your mobile phone/cell phone</br> - Communicating with others</br></br></b><p>This way, you are helping to provide data that is useful for psychological research. We thank you for your cooperation!</p>","0","html-button-response","0","1473","0.0-0.0","female","29","China","52336","25718","imgNWTK/FindOutNow.jpg","imgNWTK/KeepItSecret.jpg","imgNWTK/KeepItSecret.jpg","imgNWTK/FindOutNow.jpg","info","optim","2.63","","","","","","","","","","","","","",""
"920","<p>Welcome to the experiment!</p><p>You will now read some instructions about the task. Press the 'Next' button to continue. </p>","0","html-button-response","1","2394","0.0-1.0","female","29","China","52336","25718","imgNWTK/FindOutNow.jpg","imgNWTK/KeepItSecret.jpg","imgNWTK/KeepItSecret.jpg","imgNWTK/FindOutNow.jpg","info","optim","2.63","","","","","","","","","","","","","",""
"26413","<p> On each trial throughout the experiment you will choose between the options </br><b> Find Out Now </b> and <b> Keep It Secret </b>, as shown below.</p><div><div style= 'float: left; width: 300px; margin: 10px 10px;'><img src= 'imgNWTK/KeepItSecret.jpg'></img></div><div style= 'float: right; width: 300px; margin: 10px 10px;'><img src= 'imgNWTK/FindOutNow.jpg'></img></div></div><br/><br/><br/><br/><br/><br/><br/><br/><br/><br/><br/><p>Each option results in winning points or receiving 0 points.</br>There is a 50% chance of either winning or receiving 0 points.</p><p>You won't receive the outcome until after a <b> 20 second delay</b>. However, selecting the Find Out Now option will allow you to find out about the outcome early, whereas the Keep It Secret option will not. </p>","0","html-button-response","2","28810","0.0-2.0-0.0","female","29","China","52336","25718","imgNWTK/FindOutNow.jpg","imgNWTK/KeepItSecret.jpg","imgNWTK/KeepItSecret.jpg","imgNWTK/FindOutNow.jpg","info","optim","2.63","","","","","","","","","","","","","",""
"38397","<img src= 'cues/Experiment6.png'></img><p>As seen above, when choosing the <b>'Find Out Now'</b> option, you will receive either a happy face or sad face.</br>The happy face means you will win points after the delay, whereas the sad face means you will receive 0 points.</br></p><p> When choosing the <b> 'Keep it Secret' </b> option you will receive a confused face.</br> This face appears regardless of whether you are going to win points or not. </p>In short, choosing 'Find Out Now' allows you to find out the outcome before you experience it (after the delay).</br></br>","0","html-button-response","3","67209","0.0-2.0-1.0","female","29","China","52336","25718","imgNWTK/FindOutNow.jpg","imgNWTK/KeepItSecret.jpg","imgNWTK/KeepItSecret.jpg","imgNWTK/FindOutNow.jpg","info","optim","2.63","","","","","","","","","","","","","",""
"6100","<img src= 'cues/winTrials_info.png' width = '1200'></img><p>To reiterate, 50% of the outcomes of each option will be WIN TRIALS, and the other 50% will be NO-WIN TRIALS.","0","html-button-response","4","73312","0.0-2.0-2.0","female","29","China","52336","25718","imgNWTK/FindOutNow.jpg","imgNWTK/KeepItSecret.jpg","imgNWTK/KeepItSecret.jpg","imgNWTK/FindOutNow.jpg","info","optim","2.63","","","","","","","","","","","","","",""
"12355","<p> There will be <b>four blocks</b> in the experiment.</br>You will be given a short 15 second break between each block.</p><p><b>The points and the options will remain the same between the blocks.</b></p>The blocks are there just to give you a small break.</br></br><p>The points you earn in the task are also equal to <b> actual money</b>.</br> <b>1000 points is equal to $1.</b></p><p>This is the rate you will be paid at the experiment's end.","0","html-button-response","5","85669","0.0-2.0-3.0","female","29","China","52336","25718","imgNWTK/FindOutNow.jpg","imgNWTK/KeepItSecret.jpg","imgNWTK/KeepItSecret.jpg","imgNWTK/FindOutNow.jpg","info","optim","2.63","","","","","","","","","","","","","",""
"20109","","","survey-multi-choice","6","105787","0.0-2.0-4.0","female","29","China","52336","25718","imgNWTK/FindOutNow.jpg","imgNWTK/KeepItSecret.jpg","imgNWTK/KeepItSecret.jpg","imgNWTK/FindOutNow.jpg","info","optim","2.63","{""Q0"":""10 Seconds"",""Q1"":""True"",""Q2"":""Equally"",""Q3"":""True""}","","","","","","","","","","","","",""
"1947","Unfortunately, at least one of your answers was incorrect. Let's read the instructions again.<p> ","0","html-button-response","7","107737","0.0-2.0-5.0-0.0","female","29","China","52336","25718","imgNWTK/FindOutNow.jpg","imgNWTK/KeepItSecret.jpg","imgNWTK/KeepItSecret.jpg","imgNWTK/FindOutNow.jpg","info","optim","2.63","","","","","","","","","","","","","",""
"1592","<p> On each trial throughout the experiment you will choose between the options </br><b> Find Out Now </b> and <b> Keep It Secret </b>, as shown below.</p><div><div style= 'float: left; width: 300px; margin: 10px 10px;'><img src= 'imgNWTK/KeepItSecret.jpg'></img></div><div style= 'float: right; width: 300px; margin: 10px 10px;'><img src= 'imgNWTK/FindOutNow.jpg'></img></div></div><br/><br/><br/><br/><br/><br/><br/><br/><br/><br/><br/><p>Each option results in winning points or receiving 0 points.</br>There is a 50% chance of either winning or receiving 0 points.</p><p>You won't receive the outcome until after a <b> 20 second delay</b>. However, selecting the Find Out Now option will allow you to find out about the outcome early, whereas the Keep It Secret option will not. </p>","0","html-button-response","8","109331","0.0-2.1-0.1","female","29","China","52336","25718","imgNWTK/FindOutNow.jpg","imgNWTK/KeepItSecret.jpg","imgNWTK/KeepItSecret.jpg","imgNWTK/FindOutNow.jpg","info","optim","2.63","","","","","","","","","","","","","",""
"1639","<img src= 'cues/Experiment6.png'></img><p>As seen above, when choosing the <b>'Find Out Now'</b> option, you will receive either a happy face or sad face.</br>The happy face means you will win points after the delay, whereas the sad face means you will receive 0 points.</br></p><p> When choosing the <b> 'Keep it Secret' </b> option you will receive a confused face.</br> This face appears regardless of whether you are going to win points or not. </p>In short, choosing 'Find Out Now' allows you to find out the outcome before you experience it (after the delay).</br></br>","0","html-button-response","9","110971","0.0-2.1-1.1","female","29","China","52336","25718","imgNWTK/FindOutNow.jpg","imgNWTK/KeepItSecret.jpg","imgNWTK/KeepItSecret.jpg","imgNWTK/FindOutNow.jpg","info","optim","2.63","","","","","","","","","","","","","",""
"1213","<img src= 'cues/winTrials_info.png' width = '1200'></img><p>To reiterate, 50% of the outcomes of each option will be WIN TRIALS, and the other 50% will be NO-WIN TRIALS.","0","html-button-response","10","112185","0.0-2.1-2.1","female","29","China","52336","25718","imgNWTK/FindOutNow.jpg","imgNWTK/KeepItSecret.jpg","imgNWTK/KeepItSecret.jpg","imgNWTK/FindOutNow.jpg","info","optim","2.63","","","","","","","","","","","","","",""
"3490","<p> There will be <b>four blocks</b> in the experiment.</br>You will be given a short 15 second break between each block.</p><p><b>The points and the options will remain the same between the blocks.</b></p>The blocks are there just to give you a small break.</br></br><p>The points you earn in the task are also equal to <b> actual money</b>.</br> <b>1000 points is equal to $1.</b></p><p>This is the rate you will be paid at the experiment's end.","0","html-button-response","11","115677","0.0-2.1-3.1","female","29","China","52336","25718","imgNWTK/FindOutNow.jpg","imgNWTK/KeepItSecret.jpg","imgNWTK/KeepItSecret.jpg","imgNWTK/FindOutNow.jpg","info","optim","2.63","","","","","","","","","","","","","",""
"4581","","","survey-multi-choice","12","120266","0.0-2.1-4.1","female","29","China","52336","25718","imgNWTK/FindOutNow.jpg","imgNWTK/KeepItSecret.jpg","imgNWTK/KeepItSecret.jpg","imgNWTK/FindOutNow.jpg","info","optim","2.63","{""Q0"":""20 Seconds"",""Q1"":""True"",""Q2"":""Equally"",""Q3"":""True""}","","","","","","","","","","","","",""
"1962","<p> Well done, all your answers were correct! <br> The experiment is about to start now. <br/> Click start to continue, or email your researcher <b>(amy.x.li@unsw.edu.au)</b> if you have any questions before starting.","0","html-button-response","13","122231","0.0-3.0","female","29","China","52336","25718","imgNWTK/FindOutNow.jpg","imgNWTK/KeepItSecret.jpg","imgNWTK/KeepItSecret.jpg","imgNWTK/FindOutNow.jpg","info","optim","2.63","","","","","","","","","","","","","",""
"4958","","","bandit-task-exp6","14","130227","0.0-4.0-0.0","female","29","China","52336","25718","imgNWTK/FindOutNow.jpg","imgNWTK/KeepItSecret.jpg","imgNWTK/KeepItSecret.jpg","imgNWTK/FindOutNow.jpg","info","optim","2.63","","1","2","1","0","null","imgNWTK/FindOutNow.jpg","imgNWTK/KeepItSecret.jpg","imgNWTK/FindOutNow.jpg","NaN","NaN","","",""
"710","","","bandit-task-exp6","15","134088","0.0-4.0-0.1","female","29","China","52336","25718","imgNWTK/FindOutNow.jpg","imgNWTK/KeepItSecret.jpg","imgNWTK/KeepItSecret.jpg","imgNWTK/FindOutNow.jpg","info","optim","2.63","","2","2","1","0","null","imgNWTK/FindOutNow.jpg","imgNWTK/KeepItSecret.jpg","imgNWTK/FindOutNow.jpg","NaN","NaN","","",""
"3842","","","bandit-task-exp6","16","140970","0.0-4.0-0.2","female","29","China","52336","25718","imgNWTK/FindOutNow.jpg","imgNWTK/KeepItSecret.jpg","imgNWTK/KeepItSecret.jpg","imgNWTK/FindOutNow.jpg","info","optim","2.63","","3","2","1","0","null","imgNWTK/FindOutNow.jpg","imgNWTK/KeepItSecret.jpg","imgNWTK/FindOutNow.jpg","NaN","NaN","","",""
"2745","","","bandit-task-exp6","17","146598","0.0-4.0-0.3","female","29","China","52336","25718","imgNWTK/FindOutNow.jpg","imgNWTK/KeepItSecret.jpg","imgNWTK/KeepItSecret.jpg","imgNWTK/FindOutNow.jpg","info","optim","2.63","","4","1","1","71","null","imgNWTK/KeepItSecret.jpg","imgNWTK/FindOutNow.jpg","imgNWTK/KeepItSecret.jpg","NaN","NaN","","",""
"674","","","bandit-task-exp6","18","150154","0.0-4.0-0.4","female","29","China","52336","25718","imgNWTK/FindOutNow.jpg","imgNWTK/KeepItSecret.jpg","imgNWTK/KeepItSecret.jpg","imgNWTK/FindOutNow.jpg","info","optim","2.63","","5","1","1","84","null","imgNWTK/KeepItSecret.jpg","imgNWTK/FindOutNow.jpg","imgNWTK/KeepItSecret.jpg","NaN","NaN","","",""
"1265","","","bandit-task-exp6","19","154443","0.0-4.0-0.5","female","29","China","52336","25718","imgNWTK/FindOutNow.jpg","imgNWTK/KeepItSecret.jpg","imgNWTK/KeepItSecret.jpg","imgNWTK/FindOutNow.jpg","info","optim","2.63","","6","1","1","83","null","imgNWTK/FindOutNow.jpg","imgNWTK/KeepItSecret.jpg","imgNWTK/KeepItSecret.jpg","NaN","NaN","","",""
"1084","","","bandit-task-exp6","20","158327","0.0-4.0-0.6","female","29","China","52336","25718","imgNWTK/FindOutNow.jpg","imgNWTK/KeepItSecret.jpg","imgNWTK/KeepItSecret.jpg","imgNWTK/FindOutNow.jpg","info","optim","2.63","","7","1","1","71","null","imgNWTK/KeepItSecret.jpg","imgNWTK/FindOutNow.jpg","imgNWTK/KeepItSecret.jpg","NaN","NaN","","",""
"1109","","","bandit-task-exp6","21","162380","0.0-4.0-0.7","female","29","China","52336","25718","imgNWTK/FindOutNow.jpg","imgNWTK/KeepItSecret.jpg","imgNWTK/KeepItSecret.jpg","imgNWTK/FindOutNow.jpg","info","optim","2.63","","8","1","1","77","null","imgNWTK/KeepItSecret.jpg","imgNWTK/FindOutNow.jpg","imgNWTK/KeepItSecret.jpg","NaN","NaN","","",""
"642","","","bandit-task-exp6","22","165558","0.0-4.0-0.8","female","29","China","52336","25718","imgNWTK/FindOutNow.jpg","imgNWTK/KeepItSecret.jpg","imgNWTK/KeepItSecret.jpg","imgNWTK/FindOutNow.jpg","info","optim","2.63","","9","1","1","70","null","imgNWTK/KeepItSecret.jpg","imgNWTK/FindOutNow.jpg","imgNWTK/KeepItSecret.jpg","NaN","NaN","","",""
"618","","","bandit-task-exp6","23","168800","0.0-4.0-0.9","female","29","China","52336","25718","imgNWTK/FindOutNow.jpg","imgNWTK/KeepItSecret.jpg","imgNWTK/KeepItSecret.jpg","imgNWTK/FindOutNow.jpg","info","optim","2.63","","10","1","2","0","null","imgNWTK/KeepItSecret.jpg","imgNWTK/FindOutNow.jpg","imgNWTK/KeepItSecret.jpg","NaN","NaN","","",""
"622","","","bandit-task-exp6","24","172252","0.0-4.0-0.10","female","29","China","52336","25718","imgNWTK/FindOutNow.jpg","imgNWTK/KeepItSecret.jpg","imgNWTK/KeepItSecret.jpg","imgNWTK/FindOutNow.jpg","info","optim","2.63","","11","1","2","0","null","imgNWTK/KeepItSecret.jpg","imgNWTK/FindOutNow.jpg","imgNWTK/KeepItSecret.jpg","NaN","NaN","","",""
"521","","","bandit-task-exp6","25","175538","0.0-4.0-0.11","female","29","China","52336","25718","imgNWTK/FindOutNow.jpg","imgNWTK/KeepItSecret.jpg","imgNWTK/KeepItSecret.jpg","imgNWTK/FindOutNow.jpg","info","optim","2.63","","12","2","2","112","null","imgNWTK/KeepItSecret.jpg","imgNWTK/FindOutNow.jpg","imgNWTK/FindOutNow.jpg","NaN","NaN","","",""
"635","","","bandit-task-exp6","26","179077","0.0-4.0-0.12","female","29","China","52336","25718","imgNWTK/FindOutNow.jpg","imgNWTK/KeepItSecret.jpg","imgNWTK/KeepItSecret.jpg","imgNWTK/FindOutNow.jpg","info","optim","2.63","","13","2","1","0","null","imgNWTK/KeepItSecret.jpg","imgNWTK/FindOutNow.jpg","imgNWTK/FindOutNow.jpg","NaN","NaN","","",""
"896","","","bandit-task-exp6","27","182940","0.0-4.0-0.13","female","29","China","52336","25718","imgNWTK/FindOutNow.jpg","imgNWTK/KeepItSecret.jpg","imgNWTK/KeepItSecret.jpg","imgNWTK/FindOutNow.jpg","info","optim","2.63","","14","1","1","82","null","imgNWTK/FindOutNow.jpg","imgNWTK/KeepItSecret.jpg","imgNWTK/KeepItSecret.jpg","NaN","NaN","","",""
"604","","","bandit-task-exp6","28","186338","0.0-4.0-0.14","female","29","China","52336","25718","imgNWTK/FindOutNow.jpg","imgNWTK/KeepItSecret.jpg","imgNWTK/KeepItSecret.jpg","imgNWTK/FindOutNow.jpg","info","optim","2.63","","15","2","1","0","null","imgNWTK/KeepItSecret.jpg","imgNWTK/FindOutNow.jpg","imgNWTK/FindOutNow.jpg","NaN","NaN","","",""
"null","<p><b> Congratulations, you have finished this block. </b> </p><p>Please take a short break before moving onto the next block.</p><p>The next block will start after a 15 second break.</p><b>Remember, the point rewards are the same between blocks","","html-keyboard-response","29","201359","0.0-5.0","female","29","China","52336","25718","imgNWTK/FindOutNow.jpg","imgNWTK/KeepItSecret.jpg","imgNWTK/KeepItSecret.jpg","imgNWTK/FindOutNow.jpg","info","optim","2.63","","","","","","","","","","","","null","",""
"1959","","","bandit-task-exp6","30","206396","0.0-6.0-0.0","female","29","China","52336","25718","imgNWTK/FindOutNow.jpg","imgNWTK/KeepItSecret.jpg","imgNWTK/KeepItSecret.jpg","imgNWTK/FindOutNow.jpg","info","optim","2.63","","16","1","2","0","null","imgNWTK/FindOutNow.jpg","imgNWTK/KeepItSecret.jpg","imgNWTK/KeepItSecret.jpg","NaN","NaN","","",""
"621","","","bandit-task-exp6","31","209812","0.0-6.0-0.1","female","29","China","52336","25718","imgNWTK/FindOutNow.jpg","imgNWTK/KeepItSecret.jpg","imgNWTK/KeepItSecret.jpg","imgNWTK/FindOutNow.jpg","info","optim","2.63","","17","2","2","127","null","imgNWTK/FindOutNow.jpg","imgNWTK/KeepItSecret.jpg","imgNWTK/FindOutNow.jpg","NaN","NaN","","",""
"1044","","","bandit-task-exp6","32","213919","0.0-6.0-0.2","female","29","China","52336","25718","imgNWTK/FindOutNow.jpg","imgNWTK/KeepItSecret.jpg","imgNWTK/KeepItSecret.jpg","imgNWTK/FindOutNow.jpg","info","optim","2.63","","18","2","2","110","null","imgNWTK/FindOutNow.jpg","imgNWTK/KeepItSecret.jpg","imgNWTK/FindOutNow.jpg","NaN","NaN","","",""
"745","","","bandit-task-exp6","33","217443","0.0-6.0-0.3","female","29","China","52336","25718","imgNWTK/FindOutNow.jpg","imgNWTK/KeepItSecret.jpg","imgNWTK/KeepItSecret.jpg","imgNWTK/FindOutNow.jpg","info","optim","2.63","","19","2","2","110","null","imgNWTK/FindOutNow.jpg","imgNWTK/KeepItSecret.jpg","imgNWTK/FindOutNow.jpg","NaN","NaN","","",""
"1022","","","bandit-task-exp6","34","221056","0.0-6.0-0.4","female","29","China","52336","25718","imgNWTK/FindOutNow.jpg","imgNWTK/KeepItSecret.jpg","imgNWTK/KeepItSecret.jpg","imgNWTK/FindOutNow.jpg","info","optim","2.63","","20","2","2","119","null","imgNWTK/KeepItSecret.jpg","imgNWTK/FindOutNow.jpg","imgNWTK/FindOutNow.jpg","NaN","NaN","","",""
"1022","","","bandit-task-exp6","35","224723","0.0-6.0-0.5","female","29","China","52336","25718","imgNWTK/FindOutNow.jpg","imgNWTK/KeepItSecret.jpg","imgNWTK/KeepItSecret.jpg","imgNWTK/FindOutNow.jpg","info","optim","2.63","","21","2","1","0","null","imgNWTK/FindOutNow.jpg","imgNWTK/KeepItSecret.jpg","imgNWTK/FindOutNow.jpg","NaN","NaN","","",""
"1540","","","bandit-task-exp6","36","228956","0.0-6.0-0.6","female","29","China","52336","25718","imgNWTK/FindOutNow.jpg","imgNWTK/KeepItSecret.jpg","imgNWTK/KeepItSecret.jpg","imgNWTK/FindOutNow.jpg","info","optim","2.63","","22","2","1","0","null","imgNWTK/FindOutNow.jpg","imgNWTK/KeepItSecret.jpg","imgNWTK/FindOutNow.jpg","NaN","NaN","","",""
"729","","","bandit-task-exp6","37","232499","0.0-6.0-0.7","female","29","China","52336","25718","imgNWTK/FindOutNow.jpg","imgNWTK/KeepItSecret.jpg","imgNWTK/KeepItSecret.jpg","imgNWTK/FindOutNow.jpg","info","optim","2.63","","23","1","1","71","null","imgNWTK/KeepItSecret.jpg","imgNWTK/FindOutNow.jpg","imgNWTK/KeepItSecret.jpg","NaN","NaN","","",""
"751","","","bandit-task-exp6","38","236052","0.0-6.0-0.8","female","29","China","52336","25718","imgNWTK/FindOutNow.jpg","imgNWTK/KeepItSecret.jpg","imgNWTK/KeepItSecret.jpg","imgNWTK/FindOutNow.jpg","info","optim","2.63","","24","1","2","0","null","imgNWTK/KeepItSecret.jpg","imgNWTK/FindOutNow.jpg","imgNWTK/KeepItSecret.jpg","NaN","NaN","","",""
"673","","","bandit-task-exp6","39","239300","0.0-6.0-0.9","female","29","China","52336","25718","imgNWTK/FindOutNow.jpg","imgNWTK/KeepItSecret.jpg","imgNWTK/KeepItSecret.jpg","imgNWTK/FindOutNow.jpg","info","optim","2.63","","25","2","2","120","null","imgNWTK/KeepItSecret.jpg","imgNWTK/FindOutNow.jpg","imgNWTK/FindOutNow.jpg","NaN","NaN","","",""
"950","","","bandit-task-exp6","40","242784","0.0-6.0-0.10","female","29","China","52336","25718","imgNWTK/FindOutNow.jpg","imgNWTK/KeepItSecret.jpg","imgNWTK/KeepItSecret.jpg","imgNWTK/FindOutNow.jpg","info","optim","2.63","","26","2","2","129","null","imgNWTK/FindOutNow.jpg","imgNWTK/KeepItSecret.jpg","imgNWTK/FindOutNow.jpg","NaN","NaN","","",""
"1148","","","bandit-task-exp6","41","246789","0.0-6.0-0.11","female","29","China","52336","25718","imgNWTK/FindOutNow.jpg","imgNWTK/KeepItSecret.jpg","imgNWTK/KeepItSecret.jpg","imgNWTK/FindOutNow.jpg","info","optim","2.63","","27","2","2","125","null","imgNWTK/KeepItSecret.jpg","imgNWTK/FindOutNow.jpg","imgNWTK/FindOutNow.jpg","NaN","NaN","","",""
"777","","","bandit-task-exp6","42","250291","0.0-6.0-0.12","female","29","China","52336","25718","imgNWTK/FindOutNow.jpg","imgNWTK/KeepItSecret.jpg","imgNWTK/KeepItSecret.jpg","imgNWTK/FindOutNow.jpg","info","optim","2.63","","28","2","1","0","null","imgNWTK/FindOutNow.jpg","imgNWTK/KeepItSecret.jpg","imgNWTK/FindOutNow.jpg","NaN","NaN","","",""
"593","","","bandit-task-exp6","43","253554","0.0-6.0-0.13","female","29","China","52336","25718","imgNWTK/FindOutNow.jpg","imgNWTK/KeepItSecret.jpg","imgNWTK/KeepItSecret.jpg","imgNWTK/FindOutNow.jpg","info","optim","2.63","","29","1","1","78","null","imgNWTK/FindOutNow.jpg","imgNWTK/KeepItSecret.jpg","imgNWTK/KeepItSecret.jpg","NaN","NaN","","",""
"824","","","bandit-task-exp6","44","257022","0.0-6.0-0.14","female","29","China","52336","25718","imgNWTK/FindOutNow.jpg","imgNWTK/KeepItSecret.jpg","imgNWTK/KeepItSecret.jpg","imgNWTK/FindOutNow.jpg","info","optim","2.63","","30","1","2","0","null","imgNWTK/FindOutNow.jpg","imgNWTK/KeepItSecret.jpg","imgNWTK/KeepItSecret.jpg","NaN","NaN","","",""
"null","<p><b> Congratulations, you have finished this block. </b> </p><p>Please take a short break before moving onto the next block.</p><p>The next block will start after a 15 second break.</p><b>Remember, the point rewards are the same between blocks","","html-keyboard-response","45","272029","0.0-7.0","female","29","China","52336","25718","imgNWTK/FindOutNow.jpg","imgNWTK/KeepItSecret.jpg","imgNWTK/KeepItSecret.jpg","imgNWTK/FindOutNow.jpg","info","optim","2.63","","","","","","","","","","","","null","",""
"2432","","","bandit-task-exp6","46","277302","0.0-8.0-0.0","female","29","China","52336","25718","imgNWTK/FindOutNow.jpg","imgNWTK/KeepItSecret.jpg","imgNWTK/KeepItSecret.jpg","imgNWTK/FindOutNow.jpg","info","optim","2.63","","31","2","2","116","null","imgNWTK/KeepItSecret.jpg","imgNWTK/FindOutNow.jpg","imgNWTK/FindOutNow.jpg","NaN","NaN","","",""
"767","","","bandit-task-exp6","47","280906","0.0-8.0-0.1","female","29","China","52336","25718","imgNWTK/FindOutNow.jpg","imgNWTK/KeepItSecret.jpg","imgNWTK/KeepItSecret.jpg","imgNWTK/FindOutNow.jpg","info","optim","2.63","","32","2","1","0","null","imgNWTK/KeepItSecret.jpg","imgNWTK/FindOutNow.jpg","imgNWTK/FindOutNow.jpg","NaN","NaN","","",""
"1004","","","bandit-task-exp6","48","285004","0.0-8.0-0.2","female","29","China","52336","25718","imgNWTK/FindOutNow.jpg","imgNWTK/KeepItSecret.jpg","imgNWTK/KeepItSecret.jpg","imgNWTK/FindOutNow.jpg","info","optim","2.63","","33","1","1","88","null","imgNWTK/FindOutNow.jpg","imgNWTK/KeepItSecret.jpg","imgNWTK/KeepItSecret.jpg","NaN","NaN","","",""
"840","","","bandit-task-exp6","49","288584","0.0-8.0-0.3","female","29","China","52336","25718","imgNWTK/FindOutNow.jpg","imgNWTK/KeepItSecret.jpg","imgNWTK/KeepItSecret.jpg","imgNWTK/FindOutNow.jpg","info","optim","2.63","","34","1","2","0","null","imgNWTK/FindOutNow.jpg","imgNWTK/KeepItSecret.jpg","imgNWTK/KeepItSecret.jpg","NaN","NaN","","",""
"933","","","bandit-task-exp6","50","292256","0.0-8.0-0.4","female","29","China","52336","25718","imgNWTK/FindOutNow.jpg","imgNWTK/KeepItSecret.jpg","imgNWTK/KeepItSecret.jpg","imgNWTK/FindOutNow.jpg","info","optim","2.63","","35","1","2","0","null","imgNWTK/KeepItSecret.jpg","imgNWTK/FindOutNow.jpg","imgNWTK/KeepItSecret.jpg","NaN","NaN","","",""
"752","","","bandit-task-exp6","51","295852","0.0-8.0-0.5","female","29","China","52336","25718","imgNWTK/FindOutNow.jpg","imgNWTK/KeepItSecret.jpg","imgNWTK/KeepItSecret.jpg","imgNWTK/FindOutNow.jpg","info","optim","2.63","","36","2","1","0","null","imgNWTK/KeepItSecret.jpg","imgNWTK/FindOutNow.jpg","imgNWTK/FindOutNow.jpg","NaN","NaN","","",""
"919","","","bandit-task-exp6","52","299296","0.0-8.0-0.6","female","29","China","52336","25718","imgNWTK/FindOutNow.jpg","imgNWTK/KeepItSecret.jpg","imgNWTK/KeepItSecret.jpg","imgNWTK/FindOutNow.jpg","info","optim","2.63","","37","1","1","81","null","imgNWTK/KeepItSecret.jpg","imgNWTK/FindOutNow.jpg","imgNWTK/KeepItSecret.jpg","NaN","NaN","","",""
"918","","","bandit-task-exp6","53","302814","0.0-8.0-0.7","female","29","China","52336","25718","imgNWTK/FindOutNow.jpg","imgNWTK/KeepItSecret.jpg","imgNWTK/KeepItSecret.jpg","imgNWTK/FindOutNow.jpg","info","optim","2.63","","38","1","2","0","null","imgNWTK/FindOutNow.jpg","imgNWTK/KeepItSecret.jpg","imgNWTK/KeepItSecret.jpg","NaN","NaN","","",""
"1122","","","bandit-task-exp6","54","306429","0.0-8.0-0.8","female","29","China","52336","25718","imgNWTK/FindOutNow.jpg","imgNWTK/KeepItSecret.jpg","imgNWTK/KeepItSecret.jpg","imgNWTK/FindOutNow.jpg","info","optim","2.63","","39","2","1","0","null","imgNWTK/KeepItSecret.jpg","imgNWTK/FindOutNow.jpg","imgNWTK/FindOutNow.jpg","NaN","NaN","","",""
"809","","","bandit-task-exp6","55","309930","0.0-8.0-0.9","female","29","China","52336","25718","imgNWTK/FindOutNow.jpg","imgNWTK/KeepItSecret.jpg","imgNWTK/KeepItSecret.jpg","imgNWTK/FindOutNow.jpg","info","optim","2.63","","40","2","1","0","null","imgNWTK/KeepItSecret.jpg","imgNWTK/FindOutNow.jpg","imgNWTK/FindOutNow.jpg","NaN","NaN","","",""
"956","","","bandit-task-exp6","56","313595","0.0-8.0-0.10","female","29","China","52336","25718","imgNWTK/FindOutNow.jpg","imgNWTK/KeepItSecret.jpg","imgNWTK/KeepItSecret.jpg","imgNWTK/FindOutNow.jpg","info","optim","2.63","","41","1","1","77","null","imgNWTK/FindOutNow.jpg","imgNWTK/KeepItSecret.jpg","imgNWTK/KeepItSecret.jpg","NaN","NaN","","",""
"792","","","bandit-task-exp6","57","317063","0.0-8.0-0.11","female","29","China","52336","25718","imgNWTK/FindOutNow.jpg","imgNWTK/KeepItSecret.jpg","imgNWTK/KeepItSecret.jpg","imgNWTK/FindOutNow.jpg","info","optim","2.63","","42","1","2","0","null","imgNWTK/FindOutNow.jpg","imgNWTK/KeepItSecret.jpg","imgNWTK/KeepItSecret.jpg","NaN","NaN","","",""
"581","","","bandit-task-exp6","58","320477","0.0-8.0-0.12","female","29","China","52336","25718","imgNWTK/FindOutNow.jpg","imgNWTK/KeepItSecret.jpg","imgNWTK/KeepItSecret.jpg","imgNWTK/FindOutNow.jpg","info","optim","2.63","","43","1","2","0","null","imgNWTK/FindOutNow.jpg","imgNWTK/KeepItSecret.jpg","imgNWTK/KeepItSecret.jpg","NaN","NaN","","",""
"626","","","bandit-task-exp6","59","323823","0.0-8.0-0.13","female","29","China","52336","25718","imgNWTK/FindOutNow.jpg","imgNWTK/KeepItSecret.jpg","imgNWTK/KeepItSecret.jpg","imgNWTK/FindOutNow.jpg","info","optim","2.63","","44","1","1","74","null","imgNWTK/FindOutNow.jpg","imgNWTK/KeepItSecret.jpg","imgNWTK/KeepItSecret.jpg","NaN","NaN","","",""
"540","","","bandit-task-exp6","60","327085","0.0-8.0-0.14","female","29","China","52336","25718","imgNWTK/FindOutNow.jpg","imgNWTK/KeepItSecret.jpg","imgNWTK/KeepItSecret.jpg","imgNWTK/FindOutNow.jpg","info","optim","2.63","","45","1","2","0","null","imgNWTK/FindOutNow.jpg","imgNWTK/KeepItSecret.jpg","imgNWTK/KeepItSecret.jpg","NaN","NaN","","",""
"null","<p><b> Congratulations, you have finished this block. </b> </p><p>Please take a short break before moving onto the next block.</p><p>The next block will start after a 15 second break.</p><b>Remember, the point rewards are the same between blocks","","html-keyboard-response","61","342087","0.0-9.0","female","29","China","52336","25718","imgNWTK/FindOutNow.jpg","imgNWTK/KeepItSecret.jpg","imgNWTK/KeepItSecret.jpg","imgNWTK/FindOutNow.jpg","info","optim","2.63","","","","","","","","","","","","null","",""
"48628","","","bandit-task-exp6","62","395007","0.0-10.0-0.0","female","29","China","52336","25718","imgNWTK/FindOutNow.jpg","imgNWTK/KeepItSecret.jpg","imgNWTK/KeepItSecret.jpg","imgNWTK/FindOutNow.jpg","info","optim","2.63","","46","2","1","0","null","imgNWTK/FindOutNow.jpg","imgNWTK/KeepItSecret.jpg","imgNWTK/FindOutNow.jpg","77","0","","",""
"4866","","","bandit-task-exp6","63","402686","0.0-10.0-0.1","female","29","China","52336","25718","imgNWTK/FindOutNow.jpg","imgNWTK/KeepItSecret.jpg","imgNWTK/KeepItSecret.jpg","imgNWTK/FindOutNow.jpg","info","optim","2.63","","47","1","1","77","null","imgNWTK/KeepItSecret.jpg","imgNWTK/FindOutNow.jpg","imgNWTK/KeepItSecret.jpg","77","0","","",""
"2952","","","bandit-task-exp6","64","408544","0.0-10.0-0.2","female","29","China","52336","25718","imgNWTK/FindOutNow.jpg","imgNWTK/KeepItSecret.jpg","imgNWTK/KeepItSecret.jpg","imgNWTK/FindOutNow.jpg","info","optim","2.63","","48","1","1","72","null","imgNWTK/KeepItSecret.jpg","imgNWTK/FindOutNow.jpg","imgNWTK/KeepItSecret.jpg","77","0","","",""
"3748","","","bandit-task-exp6","65","415260","0.0-10.0-0.3","female","29","China","52336","25718","imgNWTK/FindOutNow.jpg","imgNWTK/KeepItSecret.jpg","imgNWTK/KeepItSecret.jpg","imgNWTK/FindOutNow.jpg","info","optim","2.63","","49","1","2","0","null","imgNWTK/KeepItSecret.jpg","imgNWTK/FindOutNow.jpg","imgNWTK/KeepItSecret.jpg","0","77","","",""
"5066","","","bandit-task-exp6","66","423114","0.0-10.0-0.4","female","29","China","52336","25718","imgNWTK/FindOutNow.jpg","imgNWTK/KeepItSecret.jpg","imgNWTK/KeepItSecret.jpg","imgNWTK/FindOutNow.jpg","info","optim","2.63","","50","2","1","0","null","imgNWTK/KeepItSecret.jpg","imgNWTK/FindOutNow.jpg","imgNWTK/FindOutNow.jpg","0","77","","",""
"4946","","","bandit-task-exp6","67","431006","0.0-10.0-0.5","female","29","China","52336","25718","imgNWTK/FindOutNow.jpg","imgNWTK/KeepItSecret.jpg","imgNWTK/KeepItSecret.jpg","imgNWTK/FindOutNow.jpg","info","optim","2.63","","51","1","2","0","null","imgNWTK/FindOutNow.jpg","imgNWTK/KeepItSecret.jpg","imgNWTK/KeepItSecret.jpg","0","77","","",""
"2990","","","bandit-task-exp6","68","436927","0.0-10.0-0.6","female","29","China","52336","25718","imgNWTK/FindOutNow.jpg","imgNWTK/KeepItSecret.jpg","imgNWTK/KeepItSecret.jpg","imgNWTK/FindOutNow.jpg","info","optim","2.63","","52","1","1","83","null","imgNWTK/KeepItSecret.jpg","imgNWTK/FindOutNow.jpg","imgNWTK/KeepItSecret.jpg","77","0","","",""
"4402","","","bandit-task-exp6","69","444336","0.0-10.0-0.7","female","29","China","52336","25718","imgNWTK/FindOutNow.jpg","imgNWTK/KeepItSecret.jpg","imgNWTK/KeepItSecret.jpg","imgNWTK/FindOutNow.jpg","info","optim","2.63","","53","1","2","0","null","imgNWTK/KeepItSecret.jpg","imgNWTK/FindOutNow.jpg","imgNWTK/KeepItSecret.jpg","77","0","","",""
"5067","","","bandit-task-exp6","70","452700","0.0-10.0-0.8","female","29","China","52336","25718","imgNWTK/FindOutNow.jpg","imgNWTK/KeepItSecret.jpg","imgNWTK/KeepItSecret.jpg","imgNWTK/FindOutNow.jpg","info","optim","2.63","","54","2","1","0","null","imgNWTK/FindOutNow.jpg","imgNWTK/KeepItSecret.jpg","imgNWTK/FindOutNow.jpg","77","0","","",""
"2646","","","bandit-task-exp6","71","458281","0.0-10.0-0.9","female","29","China","52336","25718","imgNWTK/FindOutNow.jpg","imgNWTK/KeepItSecret.jpg","imgNWTK/KeepItSecret.jpg","imgNWTK/FindOutNow.jpg","info","optim","2.63","","55","1","1","87","null","imgNWTK/KeepItSecret.jpg","imgNWTK/FindOutNow.jpg","imgNWTK/KeepItSecret.jpg","77","0","","",""
"2983","","","bandit-task-exp6","72","464060","0.0-10.0-0.10","female","29","China","52336","25718","imgNWTK/FindOutNow.jpg","imgNWTK/KeepItSecret.jpg","imgNWTK/KeepItSecret.jpg","imgNWTK/FindOutNow.jpg","info","optim","2.63","","56","2","1","0","null","imgNWTK/FindOutNow.jpg","imgNWTK/KeepItSecret.jpg","imgNWTK/FindOutNow.jpg","77","0","","",""
"2375","","","bandit-task-exp6","73","469144","0.0-10.0-0.11","female","29","China","52336","25718","imgNWTK/FindOutNow.jpg","imgNWTK/KeepItSecret.jpg","imgNWTK/KeepItSecret.jpg","imgNWTK/FindOutNow.jpg","info","optim","2.63","","57","2","1","0","null","imgNWTK/FindOutNow.jpg","imgNWTK/KeepItSecret.jpg","imgNWTK/FindOutNow.jpg","77","0","","",""
"2368","","","bandit-task-exp6","74","474095","0.0-10.0-0.12","female","29","China","52336","25718","imgNWTK/FindOutNow.jpg","imgNWTK/KeepItSecret.jpg","imgNWTK/KeepItSecret.jpg","imgNWTK/FindOutNow.jpg","info","optim","2.63","","58","2","1","0","null","imgNWTK/FindOutNow.jpg","imgNWTK/KeepItSecret.jpg","imgNWTK/FindOutNow.jpg","77","0","","",""
"2382","","","bandit-task-exp6","75","479242","0.0-10.0-0.13","female","29","China","52336","25718","imgNWTK/FindOutNow.jpg","imgNWTK/KeepItSecret.jpg","imgNWTK/KeepItSecret.jpg","imgNWTK/FindOutNow.jpg","info","optim","2.63","","59","2","2","116","null","imgNWTK/FindOutNow.jpg","imgNWTK/KeepItSecret.jpg","imgNWTK/FindOutNow.jpg","77","0","","",""
"2559","","","bandit-task-exp6","76","484642","0.0-10.0-0.14","female","29","China","52336","25718","imgNWTK/FindOutNow.jpg","imgNWTK/KeepItSecret.jpg","imgNWTK/KeepItSecret.jpg","imgNWTK/FindOutNow.jpg","info","optim","2.63","","60","2","2","122","null","imgNWTK/FindOutNow.jpg","imgNWTK/KeepItSecret.jpg","imgNWTK/FindOutNow.jpg","77","0","","",""
"3744","<p> Congratulations, you have finished the main part of the experiment. </p><p>Before you finish, we have a few short questions about the options and outcomes you saw in the task.</p>","0","html-button-response","77","488388","0.0-11.0","female","29","China","52336","25718","imgNWTK/FindOutNow.jpg","imgNWTK/KeepItSecret.jpg","imgNWTK/KeepItSecret.jpg","imgNWTK/FindOutNow.jpg","info","optim","2.63","","","","","","","","","","","","","",""
"16404","<p><b>Now, imagine that you clicked on the below button for another 10 trials (this includes <i> BOTH WIN and NO-WIN trials</i>).</p> <img src= 'imgNWTK/FindOutNow.jpg'></img></br></br> <p><b>Please type the reward (number of points) you would expect to receive on every trial.</br> Click start to begin.</p>","0","html-button-response","78","504794","0.0-12.0","female","29","China","52336","25718","imgNWTK/FindOutNow.jpg","imgNWTK/KeepItSecret.jpg","imgNWTK/KeepItSecret.jpg","imgNWTK/FindOutNow.jpg","info","optim","2.63","","","","","","","","","","","","","",""
"24101","","","survey-number","79","528900","0.0-13.0-0.0","female","29","China","52336","25718","imgNWTK/FindOutNow.jpg","imgNWTK/KeepItSecret.jpg","imgNWTK/KeepItSecret.jpg","imgNWTK/FindOutNow.jpg","info","optim","2.63","{""undefined"":""5""}","","","","","","","","","","","","imgNWTK/FindOutNow.jpg",""
"7340.39999961853","","","survey-number","80","536245","0.0-13.0-0.1","female","29","China","52336","25718","imgNWTK/FindOutNow.jpg","imgNWTK/KeepItSecret.jpg","imgNWTK/KeepItSecret.jpg","imgNWTK/FindOutNow.jpg","info","optim","2.63","{""undefined"":""77""}","","","","","","","","","","","","imgNWTK/FindOutNow.jpg",""
"700.0999999046326","","","survey-number","81","536950","0.0-13.0-0.2","female","29","China","52336","25718","imgNWTK/FindOutNow.jpg","imgNWTK/KeepItSecret.jpg","imgNWTK/KeepItSecret.jpg","imgNWTK/FindOutNow.jpg","info","optim","2.63","{""undefined"":""77""}","","","","","","","","","","","","imgNWTK/FindOutNow.jpg",""
"1002.7000002861023","","","survey-number","82","537957","0.0-13.0-0.3","female","29","China","52336","25718","imgNWTK/FindOutNow.jpg","imgNWTK/KeepItSecret.jpg","imgNWTK/KeepItSecret.jpg","imgNWTK/FindOutNow.jpg","info","optim","2.63","{""undefined"":""0""}","","","","","","","","","","","","imgNWTK/FindOutNow.jpg",""
"610.4000000953674","","","survey-number","83","538573","0.0-13.0-0.4","female","29","China","52336","25718","imgNWTK/FindOutNow.jpg","imgNWTK/KeepItSecret.jpg","imgNWTK/KeepItSecret.jpg","imgNWTK/FindOutNow.jpg","info","optim","2.63","{""undefined"":""87""}","","","","","","","","","","","","imgNWTK/FindOutNow.jpg",""
"1346.7999997138977","","","survey-number","84","539925","0.0-13.0-0.5","female","29","China","52336","25718","imgNWTK/FindOutNow.jpg","imgNWTK/KeepItSecret.jpg","imgNWTK/KeepItSecret.jpg","imgNWTK/FindOutNow.jpg","info","optim","2.63","{""undefined"":""0""}","","","","","","","","","","","","imgNWTK/FindOutNow.jpg",""
"539","","","survey-number","85","540469","0.0-13.0-0.6","female","29","China","52336","25718","imgNWTK/FindOutNow.jpg","imgNWTK/KeepItSecret.jpg","imgNWTK/KeepItSecret.jpg","imgNWTK/FindOutNow.jpg","info","optim","2.63","{""undefined"":""0""}","","","","","","","","","","","","imgNWTK/FindOutNow.jpg",""
"490.90000009536743","","","survey-number","86","540966","0.0-13.0-0.7","female","29","China","52336","25718","imgNWTK/FindOutNow.jpg","imgNWTK/KeepItSecret.jpg","imgNWTK/KeepItSecret.jpg","imgNWTK/FindOutNow.jpg","info","optim","2.63","{""undefined"":""0""}","","","","","","","","","","","","imgNWTK/FindOutNow.jpg",""
"2675.5","","","survey-number","87","543646","0.0-13.0-0.8","female","29","China","52336","25718","imgNWTK/FindOutNow.jpg","imgNWTK/KeepItSecret.jpg","imgNWTK/KeepItSecret.jpg","imgNWTK/FindOutNow.jpg","info","optim","2.63","{""undefined"":""87""}","","","","","","","","","","","","imgNWTK/FindOutNow.jpg",""
"2953.800000190735","","","survey-number","88","546605","0.0-13.0-0.9","female","29","China","52336","25718","imgNWTK/FindOutNow.jpg","imgNWTK/KeepItSecret.jpg","imgNWTK/KeepItSecret.jpg","imgNWTK/FindOutNow.jpg","info","optim","2.63","{""undefined"":""0""}","","","","","","","","","","","","imgNWTK/FindOutNow.jpg",""
"4299","<p><b>Imagine that you clicked on the below button for another 10 trials (this includes <i> both WIN and NO-WIN trials</i>).</p> <img src= 'imgNWTK/KeepItSecret.jpg'></img></br></br> <p><b>Please type the reward (number of points) you would expect to receive on every trial.</br> Click start to begin.</p>","0","html-button-response","89","550906","0.0-14.0","female","29","China","52336","25718","imgNWTK/FindOutNow.jpg","imgNWTK/KeepItSecret.jpg","imgNWTK/KeepItSecret.jpg","imgNWTK/FindOutNow.jpg","info","optim","2.63","","","","","","","","","","","","","",""
"2167.199999809265","","","survey-number","90","553078","0.0-15.0-0.0","female","29","China","52336","25718","imgNWTK/FindOutNow.jpg","imgNWTK/KeepItSecret.jpg","imgNWTK/KeepItSecret.jpg","imgNWTK/FindOutNow.jpg","info","optim","2.63","{""undefined"":""0""}","","","","","","","","","","","","imgNWTK/KeepItSecret.jpg",""
"426.80000019073486","","","survey-number","91","553509","0.0-15.0-0.1","female","29","China","52336","25718","imgNWTK/FindOutNow.jpg","imgNWTK/KeepItSecret.jpg","imgNWTK/KeepItSecret.jpg","imgNWTK/FindOutNow.jpg","info","optim","2.63","{""undefined"":""0""}","","","","","","","","","","","","imgNWTK/KeepItSecret.jpg",""
"1492.1000003814697","","","survey-number","92","555005","0.0-15.0-0.2","female","29","China","52336","25718","imgNWTK/FindOutNow.jpg","imgNWTK/KeepItSecret.jpg","imgNWTK/KeepItSecret.jpg","imgNWTK/FindOutNow.jpg","info","optim","2.63","{""undefined"":""77""}","","","","","","","","","","","","imgNWTK/KeepItSecret.jpg",""
"1717.5999999046326","","","survey-number","93","556727","0.0-15.0-0.3","female","29","China","52336","25718","imgNWTK/FindOutNow.jpg","imgNWTK/KeepItSecret.jpg","imgNWTK/KeepItSecret.jpg","imgNWTK/FindOutNow.jpg","info","optim","2.63","{""undefined"":""0""}","","","","","","","","","","","","imgNWTK/KeepItSecret.jpg",""
"346.90000009536743","","","survey-number","94","557078","0.0-15.0-0.4","female","29","China","52336","25718","imgNWTK/FindOutNow.jpg","imgNWTK/KeepItSecret.jpg","imgNWTK/KeepItSecret.jpg","imgNWTK/FindOutNow.jpg","info","optim","2.63","{""undefined"":""0""}","","","","","","","","","","","","imgNWTK/KeepItSecret.jpg",""
"299.19999980926514","","","survey-number","95","557382","0.0-15.0-0.5","female","29","China","52336","25718","imgNWTK/FindOutNow.jpg","imgNWTK/KeepItSecret.jpg","imgNWTK/KeepItSecret.jpg","imgNWTK/FindOutNow.jpg","info","optim","2.63","{""undefined"":""0""}","","","","","","","","","","","","imgNWTK/KeepItSecret.jpg",""
"700.4000000953674","","","survey-number","96","558086","0.0-15.0-0.6","female","29","China","52336","25718","imgNWTK/FindOutNow.jpg","imgNWTK/KeepItSecret.jpg","imgNWTK/KeepItSecret.jpg","imgNWTK/FindOutNow.jpg","info","optim","2.63","{""undefined"":""77""}","","","","","","","","","","","","imgNWTK/KeepItSecret.jpg",""
"1572.4000000953674","","","survey-number","97","559663","0.0-15.0-0.7","female","29","China","52336","25718","imgNWTK/FindOutNow.jpg","imgNWTK/KeepItSecret.jpg","imgNWTK/KeepItSecret.jpg","imgNWTK/FindOutNow.jpg","info","optim","2.63","{""undefined"":""87""}","","","","","","","","","","","","imgNWTK/KeepItSecret.jpg",""
"1258.5999999046326","","","survey-number","98","560926","0.0-15.0-0.8","female","29","China","52336","25718","imgNWTK/FindOutNow.jpg","imgNWTK/KeepItSecret.jpg","imgNWTK/KeepItSecret.jpg","imgNWTK/FindOutNow.jpg","info","optim","2.63","{""undefined"":""77""}","","","","","","","","","","","","imgNWTK/KeepItSecret.jpg",""
"810.8000001907349","","","survey-number","99","561741","0.0-15.0-0.9","female","29","China","52336","25718","imgNWTK/FindOutNow.jpg","imgNWTK/KeepItSecret.jpg","imgNWTK/KeepItSecret.jpg","imgNWTK/FindOutNow.jpg","info","optim","2.63","{""undefined"":""0""}","","","","","","","","","","","","imgNWTK/KeepItSecret.jpg",""
"25818.800000190735","","","survey-number","100","587576","0.0-16.0","female","29","China","52336","25718","imgNWTK/FindOutNow.jpg","imgNWTK/KeepItSecret.jpg","imgNWTK/KeepItSecret.jpg","imgNWTK/FindOutNow.jpg","info","optim","2.63","{""undefined"":""1000""}","","","","","","","","","","","","","imgNWTK/FindOutNow.jpg"
"41855.90000009537","","","survey-number","101","629437","0.0-17.0","female","29","China","52336","25718","imgNWTK/FindOutNow.jpg","imgNWTK/KeepItSecret.jpg","imgNWTK/KeepItSecret.jpg","imgNWTK/FindOutNow.jpg","info","optim","2.63","{""undefined"":""77""}","","","","","","","","","","","","","imgNWTK/KeepItSecret.jpg"
"18610","<p style=""text-align:left;"">Great! We are almost at the end of the study... (Please do not close the browser window yet.)</p><p> Your final points balance is 2632, which equals to a bonus payment of $2.63. Please collect your payment from Mathews Building Room 721 (Wed-Fri 9am-5pm); please email jaimie.lee@unsw.edu.au at least 24 hours prior to collection so that this is ready for you.</p><p style=""text-align:left;"">To view the debriefing form, please click <a href=""./imgNWTK/debrief_3205.pdf"" target=""_blank"">here</a> to download a copy.</p><p style=""text-align:left;"">Then, <b>please click the below button</b> to confirm that you have received your debrief and to complete the study. Upon clicking ""Finish!"", your SONA credit will be automatically assigned.</p>","0","html-button-response","102","648050","0.0-18.0","female","29","China","52336","25718","imgNWTK/FindOutNow.jpg","imgNWTK/KeepItSecret.jpg","imgNWTK/KeepItSecret.jpg","imgNWTK/FindOutNow.jpg","info","optim","2.63","","","","","","","","","","","","","",""
