"rt","stimulus","button_pressed","trial_type","trial_index","time_elapsed","internal_node_id","gender","age","language","PID","sona_id","subStim","optStim","stim1","stim2","infoCond","optimCond","bonus","responses","banditTrial","choice","cue","feedback","estimateData","leftOption","rightOption","choiceName","leftInput","rightInput","key_press","postQ","singleEst"
"961","<p>Thank you for signing up to participate in SONA Study 465! <br> During this study, please focus on the experiment and refrain from activities such as:</p>- <b>Switching to other tabs on your browser (this will be monitored via the experiment)</br> - Using your mobile phone/cell phone</br> - Communicating with others</br></br></b><p>This way, you are helping to provide data that is useful for psychological research. We thank you for your cooperation!</p>","0","html-button-response","0","969","0.0-0.0","male","21","Australia","29418","26627","imgNWTK/triangle.png","imgNWTK/square.png","imgNWTK/triangle.png","imgNWTK/square.png","noninfo","sub","3.06","","","","","","","","","","","","","",""
"738","<p>Welcome to the experiment!</p><p>You will now read some instructions about the task. Press the 'Next' button to continue. </p>","0","html-button-response","1","1713","0.0-1.0","male","21","Australia","29418","26627","imgNWTK/triangle.png","imgNWTK/square.png","imgNWTK/triangle.png","imgNWTK/square.png","noninfo","sub","3.06","","","","","","","","","","","","","",""
"898","<p> On each trial throughout the experiment you will choose between two options, </br>a <b>Black Square </b> and <b> Black Triangle </b>, as seen below.</p><div><div style= 'float: left; width: 300px; margin: 10px 10px;'><img src= 'imgNWTK/square.png'></img></div><div style= 'float: right; width: 300px; margin: 10px 10px;'><img src= 'imgNWTK/triangle.png'></img></div></div><br/><br/><br/><br/><br/><br/><br/><br/><br/><br/><br/><p>Each option results in winning points or receiving 0 points.</br>There is a 50% chance of either winning or receiving 0 points.</p><p>You won't receive the outcome until after a <b> 20 second delay</b>.</p>","0","html-button-response","2","2612","0.0-2.0-0.0","male","21","Australia","29418","26627","imgNWTK/triangle.png","imgNWTK/square.png","imgNWTK/triangle.png","imgNWTK/square.png","noninfo","sub","3.06","","","","","","","","","","","","","",""
"1854","<img src= 'imgNWTK/NonInfoDiagram.png'></img><p>As seen above, whether you choose the square or triangle, you will receive a coloured circle after the choice. </p> <p>This circle will be on screen for 20 seconds until you win points or receive 0 points.</p><p>The coloured circle depends on which option you chose. </br> In the above example, choosing a triangle leads to a green circle and choosing the square leads to a red circle.</p>Please note: the circles in your task will be different to the above colours.</br></br>","0","html-button-response","3","4469","0.0-2.0-1.0","male","21","Australia","29418","26627","imgNWTK/triangle.png","imgNWTK/square.png","imgNWTK/triangle.png","imgNWTK/square.png","noninfo","sub","3.06","","","","","","","","","","","","","",""
"1246","<img src= 'cues/winTrials_noInfo.png' width = '1200'></img><p>To reiterate, 50% of the outcomes of each option will be WIN TRIALS, and the other 50% will be NO-WIN TRIALS.","0","html-button-response","4","5718","0.0-2.0-2.0","male","21","Australia","29418","26627","imgNWTK/triangle.png","imgNWTK/square.png","imgNWTK/triangle.png","imgNWTK/square.png","noninfo","sub","3.06","","","","","","","","","","","","","",""
"1112","<p> There will be <b>four blocks</b> in the experiment.</br>You will be given a short 15 second break between each block.</p><p><b>The points and the options will remain the same between the blocks.</b></p>The blocks are there just to give you a small break.</br></br></br></br><p>The points you earn in the task are also equal to <b> actual money</b>.</br> <b>1000 points is equal to $1 AUD</b></p><p>This is the rate you will be paid at the experiment's end.","0","html-button-response","5","6835","0.0-2.0-3.0","male","21","Australia","29418","26627","imgNWTK/triangle.png","imgNWTK/square.png","imgNWTK/triangle.png","imgNWTK/square.png","noninfo","sub","3.06","","","","","","","","","","","","","",""
"4983","","","survey-multi-choice","6","11831","0.0-2.0-4.0","male","21","Australia","29418","26627","imgNWTK/triangle.png","imgNWTK/square.png","imgNWTK/triangle.png","imgNWTK/square.png","noninfo","sub","3.06","{""Q0"":""20 Seconds"",""Q1"":""True"",""Q2"":""Equally""}","","","","","","","","","","","","",""
"1058","<p> Well done, all your answers were correct! <br> The experiment is about to start now. <br/> Click start to continue, or email your researcher <b>(amy.x.li@unsw.edu.au)</b> if you have any questions before starting.","0","html-button-response","7","12915","0.0-3.0","male","21","Australia","29418","26627","imgNWTK/triangle.png","imgNWTK/square.png","imgNWTK/triangle.png","imgNWTK/square.png","noninfo","sub","3.06","","","","","","","","","","","","","",""
"3147","","","bandit-task-exp6","8","19048","0.0-4.0-0.0","male","21","Australia","29418","26627","imgNWTK/triangle.png","imgNWTK/square.png","imgNWTK/triangle.png","imgNWTK/square.png","noninfo","sub","3.06","","1","2","2","73","null","imgNWTK/triangle.png","imgNWTK/square.png","imgNWTK/square.png","NaN","NaN","","",""
"1765","","","bandit-task-exp6","9","24597","0.0-4.0-0.1","male","21","Australia","29418","26627","imgNWTK/triangle.png","imgNWTK/square.png","imgNWTK/triangle.png","imgNWTK/square.png","noninfo","sub","3.06","","2","1","2","0","null","imgNWTK/square.png","imgNWTK/triangle.png","imgNWTK/triangle.png","NaN","NaN","","",""
"1250","","","bandit-task-exp6","10","29006","0.0-4.0-0.2","male","21","Australia","29418","26627","imgNWTK/triangle.png","imgNWTK/square.png","imgNWTK/triangle.png","imgNWTK/square.png","noninfo","sub","3.06","","3","2","1","0","null","imgNWTK/square.png","imgNWTK/triangle.png","imgNWTK/square.png","NaN","NaN","","",""
"1077","","","bandit-task-exp6","11","33223","0.0-4.0-0.3","male","21","Australia","29418","26627","imgNWTK/triangle.png","imgNWTK/square.png","imgNWTK/triangle.png","imgNWTK/square.png","noninfo","sub","3.06","","4","2","2","81","null","imgNWTK/triangle.png","imgNWTK/square.png","imgNWTK/square.png","NaN","NaN","","",""
"946","","","bandit-task-exp6","12","36933","0.0-4.0-0.4","male","21","Australia","29418","26627","imgNWTK/triangle.png","imgNWTK/square.png","imgNWTK/triangle.png","imgNWTK/square.png","noninfo","sub","3.06","","5","2","1","0","null","imgNWTK/triangle.png","imgNWTK/square.png","imgNWTK/square.png","NaN","NaN","","",""
"882","","","bandit-task-exp6","13","40361","0.0-4.0-0.5","male","21","Australia","29418","26627","imgNWTK/triangle.png","imgNWTK/square.png","imgNWTK/triangle.png","imgNWTK/square.png","noninfo","sub","3.06","","6","2","2","80","null","imgNWTK/triangle.png","imgNWTK/square.png","imgNWTK/square.png","NaN","NaN","","",""
"757","","","bandit-task-exp6","14","43743","0.0-4.0-0.6","male","21","Australia","29418","26627","imgNWTK/triangle.png","imgNWTK/square.png","imgNWTK/triangle.png","imgNWTK/square.png","noninfo","sub","3.06","","7","1","2","0","null","imgNWTK/square.png","imgNWTK/triangle.png","imgNWTK/triangle.png","NaN","NaN","","",""
"897","","","bandit-task-exp6","15","47212","0.0-4.0-0.7","male","21","Australia","29418","26627","imgNWTK/triangle.png","imgNWTK/square.png","imgNWTK/triangle.png","imgNWTK/square.png","noninfo","sub","3.06","","8","2","2","89","null","imgNWTK/triangle.png","imgNWTK/square.png","imgNWTK/square.png","NaN","NaN","","",""
"861","","","bandit-task-exp6","16","50941","0.0-4.0-0.8","male","21","Australia","29418","26627","imgNWTK/triangle.png","imgNWTK/square.png","imgNWTK/triangle.png","imgNWTK/square.png","noninfo","sub","3.06","","9","2","2","80","null","imgNWTK/triangle.png","imgNWTK/square.png","imgNWTK/square.png","NaN","NaN","","",""
"1237","","","bandit-task-exp6","17","54953","0.0-4.0-0.9","male","21","Australia","29418","26627","imgNWTK/triangle.png","imgNWTK/square.png","imgNWTK/triangle.png","imgNWTK/square.png","noninfo","sub","3.06","","10","1","1","118","null","imgNWTK/square.png","imgNWTK/triangle.png","imgNWTK/triangle.png","NaN","NaN","","",""
"982","","","bandit-task-exp6","18","58779","0.0-4.0-0.10","male","21","Australia","29418","26627","imgNWTK/triangle.png","imgNWTK/square.png","imgNWTK/triangle.png","imgNWTK/square.png","noninfo","sub","3.06","","11","2","2","79","null","imgNWTK/square.png","imgNWTK/triangle.png","imgNWTK/square.png","NaN","NaN","","",""
"1019","","","bandit-task-exp6","19","62623","0.0-4.0-0.11","male","21","Australia","29418","26627","imgNWTK/triangle.png","imgNWTK/square.png","imgNWTK/triangle.png","imgNWTK/square.png","noninfo","sub","3.06","","12","1","1","126","null","imgNWTK/square.png","imgNWTK/triangle.png","imgNWTK/triangle.png","NaN","NaN","","",""
"683","","","bandit-task-exp6","20","65959","0.0-4.0-0.12","male","21","Australia","29418","26627","imgNWTK/triangle.png","imgNWTK/square.png","imgNWTK/triangle.png","imgNWTK/square.png","noninfo","sub","3.06","","13","2","1","0","null","imgNWTK/triangle.png","imgNWTK/square.png","imgNWTK/square.png","NaN","NaN","","",""
"738","","","bandit-task-exp6","21","69399","0.0-4.0-0.13","male","21","Australia","29418","26627","imgNWTK/triangle.png","imgNWTK/square.png","imgNWTK/triangle.png","imgNWTK/square.png","noninfo","sub","3.06","","14","1","1","115","null","imgNWTK/square.png","imgNWTK/triangle.png","imgNWTK/triangle.png","NaN","NaN","","",""
"661","","","bandit-task-exp6","22","72566","0.0-4.0-0.14","male","21","Australia","29418","26627","imgNWTK/triangle.png","imgNWTK/square.png","imgNWTK/triangle.png","imgNWTK/square.png","noninfo","sub","3.06","","15","2","1","0","null","imgNWTK/square.png","imgNWTK/triangle.png","imgNWTK/square.png","NaN","NaN","","",""
"null","<p><b> Congratulations, you have finished this block. </b> </p><p>Please take a short break before moving onto the next block.</p><p>The next block will start after a 15 second break.</p><b>Remember, the point rewards are the same between blocks","","html-keyboard-response","23","87571","0.0-5.0","male","21","Australia","29418","26627","imgNWTK/triangle.png","imgNWTK/square.png","imgNWTK/triangle.png","imgNWTK/square.png","noninfo","sub","3.06","","","","","","","","","","","","null","",""
"897","","","bandit-task-exp6","24","91523","0.0-6.0-0.0","male","21","Australia","29418","26627","imgNWTK/triangle.png","imgNWTK/square.png","imgNWTK/triangle.png","imgNWTK/square.png","noninfo","sub","3.06","","16","2","1","0","null","imgNWTK/square.png","imgNWTK/triangle.png","imgNWTK/square.png","NaN","NaN","","",""
"1499","","","bandit-task-exp6","25","96222","0.0-6.0-0.1","male","21","Australia","29418","26627","imgNWTK/triangle.png","imgNWTK/square.png","imgNWTK/triangle.png","imgNWTK/square.png","noninfo","sub","3.06","","17","2","2","75","null","imgNWTK/square.png","imgNWTK/triangle.png","imgNWTK/square.png","NaN","NaN","","",""
"667","","","bandit-task-exp6","26","99716","0.0-6.0-0.2","male","21","Australia","29418","26627","imgNWTK/triangle.png","imgNWTK/square.png","imgNWTK/triangle.png","imgNWTK/square.png","noninfo","sub","3.06","","18","2","2","90","null","imgNWTK/triangle.png","imgNWTK/square.png","imgNWTK/square.png","NaN","NaN","","",""
"980","","","bandit-task-exp6","27","103611","0.0-6.0-0.3","male","21","Australia","29418","26627","imgNWTK/triangle.png","imgNWTK/square.png","imgNWTK/triangle.png","imgNWTK/square.png","noninfo","sub","3.06","","19","2","2","80","null","imgNWTK/triangle.png","imgNWTK/square.png","imgNWTK/square.png","NaN","NaN","","",""
"824","","","bandit-task-exp6","28","106875","0.0-6.0-0.4","male","21","Australia","29418","26627","imgNWTK/triangle.png","imgNWTK/square.png","imgNWTK/triangle.png","imgNWTK/square.png","noninfo","sub","3.06","","20","1","1","129","null","imgNWTK/square.png","imgNWTK/triangle.png","imgNWTK/triangle.png","NaN","NaN","","",""
"797","","","bandit-task-exp6","29","110435","0.0-6.0-0.5","male","21","Australia","29418","26627","imgNWTK/triangle.png","imgNWTK/square.png","imgNWTK/triangle.png","imgNWTK/square.png","noninfo","sub","3.06","","21","1","1","111","null","imgNWTK/square.png","imgNWTK/triangle.png","imgNWTK/triangle.png","NaN","NaN","","",""
"638","","","bandit-task-exp6","30","113538","0.0-6.0-0.6","male","21","Australia","29418","26627","imgNWTK/triangle.png","imgNWTK/square.png","imgNWTK/triangle.png","imgNWTK/square.png","noninfo","sub","3.06","","22","2","1","0","null","imgNWTK/triangle.png","imgNWTK/square.png","imgNWTK/square.png","NaN","NaN","","",""
"661","","","bandit-task-exp6","31","116659","0.0-6.0-0.7","male","21","Australia","29418","26627","imgNWTK/triangle.png","imgNWTK/square.png","imgNWTK/triangle.png","imgNWTK/square.png","noninfo","sub","3.06","","23","2","1","0","null","imgNWTK/square.png","imgNWTK/triangle.png","imgNWTK/square.png","NaN","NaN","","",""
"666","","","bandit-task-exp6","32","119755","0.0-6.0-0.8","male","21","Australia","29418","26627","imgNWTK/triangle.png","imgNWTK/square.png","imgNWTK/triangle.png","imgNWTK/square.png","noninfo","sub","3.06","","24","2","1","0","null","imgNWTK/square.png","imgNWTK/triangle.png","imgNWTK/square.png","NaN","NaN","","",""
"845","","","bandit-task-exp6","33","123742","0.0-6.0-0.9","male","21","Australia","29418","26627","imgNWTK/triangle.png","imgNWTK/square.png","imgNWTK/triangle.png","imgNWTK/square.png","noninfo","sub","3.06","","25","2","2","76","null","imgNWTK/triangle.png","imgNWTK/square.png","imgNWTK/square.png","NaN","NaN","","",""
"611","","","bandit-task-exp6","34","127060","0.0-6.0-0.10","male","21","Australia","29418","26627","imgNWTK/triangle.png","imgNWTK/square.png","imgNWTK/triangle.png","imgNWTK/square.png","noninfo","sub","3.06","","26","2","2","75","null","imgNWTK/triangle.png","imgNWTK/square.png","imgNWTK/square.png","NaN","NaN","","",""
"631","","","bandit-task-exp6","35","130149","0.0-6.0-0.11","male","21","Australia","29418","26627","imgNWTK/triangle.png","imgNWTK/square.png","imgNWTK/triangle.png","imgNWTK/square.png","noninfo","sub","3.06","","27","1","2","0","null","imgNWTK/square.png","imgNWTK/triangle.png","imgNWTK/triangle.png","NaN","NaN","","",""
"704","","","bandit-task-exp6","36","133515","0.0-6.0-0.12","male","21","Australia","29418","26627","imgNWTK/triangle.png","imgNWTK/square.png","imgNWTK/triangle.png","imgNWTK/square.png","noninfo","sub","3.06","","28","1","1","127","null","imgNWTK/triangle.png","imgNWTK/square.png","imgNWTK/triangle.png","NaN","NaN","","",""
"548","","","bandit-task-exp6","37","136762","0.0-6.0-0.13","male","21","Australia","29418","26627","imgNWTK/triangle.png","imgNWTK/square.png","imgNWTK/triangle.png","imgNWTK/square.png","noninfo","sub","3.06","","29","1","1","130","null","imgNWTK/triangle.png","imgNWTK/square.png","imgNWTK/triangle.png","NaN","NaN","","",""
"1031","","","bandit-task-exp6","38","140256","0.0-6.0-0.14","male","21","Australia","29418","26627","imgNWTK/triangle.png","imgNWTK/square.png","imgNWTK/triangle.png","imgNWTK/square.png","noninfo","sub","3.06","","30","2","1","0","null","imgNWTK/square.png","imgNWTK/triangle.png","imgNWTK/square.png","NaN","NaN","","",""
"null","<p><b> Congratulations, you have finished this block. </b> </p><p>Please take a short break before moving onto the next block.</p><p>The next block will start after a 15 second break.</p><b>Remember, the point rewards are the same between blocks","","html-keyboard-response","39","155260","0.0-7.0","male","21","Australia","29418","26627","imgNWTK/triangle.png","imgNWTK/square.png","imgNWTK/triangle.png","imgNWTK/square.png","noninfo","sub","3.06","","","","","","","","","","","","null","",""
"7511","","","bandit-task-exp6","40","166577","0.0-8.0-0.0","male","21","Australia","29418","26627","imgNWTK/triangle.png","imgNWTK/square.png","imgNWTK/triangle.png","imgNWTK/square.png","noninfo","sub","3.06","","31","2","1","0","null","imgNWTK/triangle.png","imgNWTK/square.png","imgNWTK/square.png","NaN","NaN","","",""
"682","","","bandit-task-exp6","41","170000","0.0-8.0-0.1","male","21","Australia","29418","26627","imgNWTK/triangle.png","imgNWTK/square.png","imgNWTK/triangle.png","imgNWTK/square.png","noninfo","sub","3.06","","32","1","1","127","null","imgNWTK/square.png","imgNWTK/triangle.png","imgNWTK/triangle.png","NaN","NaN","","",""
"970","","","bandit-task-exp6","42","173460","0.0-8.0-0.2","male","21","Australia","29418","26627","imgNWTK/triangle.png","imgNWTK/square.png","imgNWTK/triangle.png","imgNWTK/square.png","noninfo","sub","3.06","","33","2","2","76","null","imgNWTK/triangle.png","imgNWTK/square.png","imgNWTK/square.png","NaN","NaN","","",""
"1323","","","bandit-task-exp6","43","177691","0.0-8.0-0.3","male","21","Australia","29418","26627","imgNWTK/triangle.png","imgNWTK/square.png","imgNWTK/triangle.png","imgNWTK/square.png","noninfo","sub","3.06","","34","2","2","73","null","imgNWTK/square.png","imgNWTK/triangle.png","imgNWTK/square.png","NaN","NaN","","",""
"713","","","bandit-task-exp6","44","184083","0.0-8.0-0.4","male","21","Australia","29418","26627","imgNWTK/triangle.png","imgNWTK/square.png","imgNWTK/triangle.png","imgNWTK/square.png","noninfo","sub","3.06","","35","1","2","0","null","imgNWTK/square.png","imgNWTK/triangle.png","imgNWTK/triangle.png","NaN","NaN","","",""
"697","","","bandit-task-exp6","45","187243","0.0-8.0-0.5","male","21","Australia","29418","26627","imgNWTK/triangle.png","imgNWTK/square.png","imgNWTK/triangle.png","imgNWTK/square.png","noninfo","sub","3.06","","36","2","1","0","null","imgNWTK/triangle.png","imgNWTK/square.png","imgNWTK/square.png","NaN","NaN","","",""
"788","","","bandit-task-exp6","46","191284","0.0-8.0-0.6","male","21","Australia","29418","26627","imgNWTK/triangle.png","imgNWTK/square.png","imgNWTK/triangle.png","imgNWTK/square.png","noninfo","sub","3.06","","37","2","1","0","null","imgNWTK/triangle.png","imgNWTK/square.png","imgNWTK/square.png","NaN","NaN","","",""
"838","","","bandit-task-exp6","47","194554","0.0-8.0-0.7","male","21","Australia","29418","26627","imgNWTK/triangle.png","imgNWTK/square.png","imgNWTK/triangle.png","imgNWTK/square.png","noninfo","sub","3.06","","38","2","1","0","null","imgNWTK/square.png","imgNWTK/triangle.png","imgNWTK/square.png","NaN","NaN","","",""
"587","","","bandit-task-exp6","48","198080","0.0-8.0-0.8","male","21","Australia","29418","26627","imgNWTK/triangle.png","imgNWTK/square.png","imgNWTK/triangle.png","imgNWTK/square.png","noninfo","sub","3.06","","39","1","1","125","null","imgNWTK/triangle.png","imgNWTK/square.png","imgNWTK/triangle.png","NaN","NaN","","",""
"885","","","bandit-task-exp6","49","201927","0.0-8.0-0.9","male","21","Australia","29418","26627","imgNWTK/triangle.png","imgNWTK/square.png","imgNWTK/triangle.png","imgNWTK/square.png","noninfo","sub","3.06","","40","1","2","0","null","imgNWTK/triangle.png","imgNWTK/square.png","imgNWTK/triangle.png","NaN","NaN","","",""
"572","","","bandit-task-exp6","50","204923","0.0-8.0-0.10","male","21","Australia","29418","26627","imgNWTK/triangle.png","imgNWTK/square.png","imgNWTK/triangle.png","imgNWTK/square.png","noninfo","sub","3.06","","41","2","1","0","null","imgNWTK/triangle.png","imgNWTK/square.png","imgNWTK/square.png","NaN","NaN","","",""
"595","","","bandit-task-exp6","51","208194","0.0-8.0-0.11","male","21","Australia","29418","26627","imgNWTK/triangle.png","imgNWTK/square.png","imgNWTK/triangle.png","imgNWTK/square.png","noninfo","sub","3.06","","42","1","1","111","null","imgNWTK/triangle.png","imgNWTK/square.png","imgNWTK/triangle.png","NaN","NaN","","",""
"636","","","bandit-task-exp6","52","212456","0.0-8.0-0.12","male","21","Australia","29418","26627","imgNWTK/triangle.png","imgNWTK/square.png","imgNWTK/triangle.png","imgNWTK/square.png","noninfo","sub","3.06","","43","2","1","0","null","imgNWTK/square.png","imgNWTK/triangle.png","imgNWTK/square.png","NaN","NaN","","",""
"2371","","","bandit-task-exp6","53","217252","0.0-8.0-0.13","male","21","Australia","29418","26627","imgNWTK/triangle.png","imgNWTK/square.png","imgNWTK/triangle.png","imgNWTK/square.png","noninfo","sub","3.06","","44","2","1","0","null","imgNWTK/square.png","imgNWTK/triangle.png","imgNWTK/square.png","NaN","NaN","","",""
"683","","","bandit-task-exp6","54","220601","0.0-8.0-0.14","male","21","Australia","29418","26627","imgNWTK/triangle.png","imgNWTK/square.png","imgNWTK/triangle.png","imgNWTK/square.png","noninfo","sub","3.06","","45","2","1","0","null","imgNWTK/triangle.png","imgNWTK/square.png","imgNWTK/square.png","NaN","NaN","","",""
"null","<p><b> Congratulations, you have finished this block. </b> </p><p>Please take a short break before moving onto the next block.</p><p>The next block will start after a 15 second break.</p><b>Remember, the point rewards are the same between blocks","","html-keyboard-response","55","235607","0.0-9.0","male","21","Australia","29418","26627","imgNWTK/triangle.png","imgNWTK/square.png","imgNWTK/triangle.png","imgNWTK/square.png","noninfo","sub","3.06","","","","","","","","","","","","null","",""
"17079","","","bandit-task-exp6","56","255398","0.0-10.0-0.0","male","21","Australia","29418","26627","imgNWTK/triangle.png","imgNWTK/square.png","imgNWTK/triangle.png","imgNWTK/square.png","noninfo","sub","3.06","","46","2","2","75","null","imgNWTK/square.png","imgNWTK/triangle.png","imgNWTK/square.png","111","0","","",""
"6889","","","bandit-task-exp6","57","265184","0.0-10.0-0.1","male","21","Australia","29418","26627","imgNWTK/triangle.png","imgNWTK/square.png","imgNWTK/triangle.png","imgNWTK/square.png","noninfo","sub","3.06","","47","2","2","88","null","imgNWTK/square.png","imgNWTK/triangle.png","imgNWTK/square.png","111","0","","",""
"5821","","","bandit-task-exp6","58","273761","0.0-10.0-0.2","male","21","Australia","29418","26627","imgNWTK/triangle.png","imgNWTK/square.png","imgNWTK/triangle.png","imgNWTK/square.png","noninfo","sub","3.06","","48","1","1","117","null","imgNWTK/square.png","imgNWTK/triangle.png","imgNWTK/triangle.png","0","85","","",""
"19250","","","bandit-task-exp6","59","296353","0.0-10.0-0.3","male","21","Australia","29418","26627","imgNWTK/triangle.png","imgNWTK/square.png","imgNWTK/triangle.png","imgNWTK/square.png","noninfo","sub","3.06","","49","1","1","120","null","imgNWTK/triangle.png","imgNWTK/square.png","imgNWTK/triangle.png","100","0","","",""
"4468","","","bandit-task-exp6","60","303923","0.0-10.0-0.4","male","21","Australia","29418","26627","imgNWTK/triangle.png","imgNWTK/square.png","imgNWTK/triangle.png","imgNWTK/square.png","noninfo","sub","3.06","","50","2","1","0","null","imgNWTK/square.png","imgNWTK/triangle.png","imgNWTK/square.png","100","80","","",""
"6442","","","bandit-task-exp6","61","315444","0.0-10.0-0.5","male","21","Australia","29418","26627","imgNWTK/triangle.png","imgNWTK/square.png","imgNWTK/triangle.png","imgNWTK/square.png","noninfo","sub","3.06","","51","1","2","0","null","imgNWTK/triangle.png","imgNWTK/square.png","imgNWTK/triangle.png","90","0","","",""
"4856","","","bandit-task-exp6","62","323262","0.0-10.0-0.6","male","21","Australia","29418","26627","imgNWTK/triangle.png","imgNWTK/square.png","imgNWTK/triangle.png","imgNWTK/square.png","noninfo","sub","3.06","","52","1","1","127","null","imgNWTK/square.png","imgNWTK/triangle.png","imgNWTK/triangle.png","80","115","","",""
"6158","","","bandit-task-exp6","63","332069","0.0-10.0-0.7","male","21","Australia","29418","26627","imgNWTK/triangle.png","imgNWTK/square.png","imgNWTK/triangle.png","imgNWTK/square.png","noninfo","sub","3.06","","53","1","1","128","null","imgNWTK/square.png","imgNWTK/triangle.png","imgNWTK/triangle.png","80","117","","",""
"11651","","","bandit-task-exp6","64","346759","0.0-10.0-0.8","male","21","Australia","29418","26627","imgNWTK/triangle.png","imgNWTK/square.png","imgNWTK/triangle.png","imgNWTK/square.png","noninfo","sub","3.06","","54","2","2","79","null","imgNWTK/square.png","imgNWTK/triangle.png","imgNWTK/square.png","125","85","","",""
"5908","","","bandit-task-exp6","65","405823","0.0-10.0-0.9","male","21","Australia","29418","26627","imgNWTK/triangle.png","imgNWTK/square.png","imgNWTK/triangle.png","imgNWTK/square.png","noninfo","sub","3.06","","55","2","1","0","null","imgNWTK/square.png","imgNWTK/triangle.png","imgNWTK/square.png","79","117","","",""
"5477","","","bandit-task-exp6","66","416978","0.0-10.0-0.10","male","21","Australia","29418","26627","imgNWTK/triangle.png","imgNWTK/square.png","imgNWTK/triangle.png","imgNWTK/square.png","noninfo","sub","3.06","","56","2","1","0","null","imgNWTK/square.png","imgNWTK/triangle.png","imgNWTK/square.png","75","112","","",""
"4813","","","bandit-task-exp6","67","424741","0.0-10.0-0.11","male","21","Australia","29418","26627","imgNWTK/triangle.png","imgNWTK/square.png","imgNWTK/triangle.png","imgNWTK/square.png","noninfo","sub","3.06","","57","2","1","0","null","imgNWTK/square.png","imgNWTK/triangle.png","imgNWTK/square.png","85","100","","",""
"13869","","","bandit-task-exp6","68","441956","0.0-10.0-0.12","male","21","Australia","29418","26627","imgNWTK/triangle.png","imgNWTK/square.png","imgNWTK/triangle.png","imgNWTK/square.png","noninfo","sub","3.06","","58","2","1","0","null","imgNWTK/square.png","imgNWTK/triangle.png","imgNWTK/square.png","117","80","","",""
"5226","","","bandit-task-exp6","69","450138","0.0-10.0-0.13","male","21","Australia","29418","26627","imgNWTK/triangle.png","imgNWTK/square.png","imgNWTK/triangle.png","imgNWTK/square.png","noninfo","sub","3.06","","59","2","2","76","null","imgNWTK/triangle.png","imgNWTK/square.png","imgNWTK/square.png","85","110","","",""
"4020","","","bandit-task-exp6","70","456942","0.0-10.0-0.14","male","21","Australia","29418","26627","imgNWTK/triangle.png","imgNWTK/square.png","imgNWTK/triangle.png","imgNWTK/square.png","noninfo","sub","3.06","","60","2","1","0","null","imgNWTK/square.png","imgNWTK/triangle.png","imgNWTK/square.png","110","35","","",""
"4946","<p> Congratulations, you have finished the main part of the experiment. </p><p>Before you finish, we have a few short questions about the options and outcomes you saw in the task.</p>","0","html-button-response","71","461892","0.0-11.0","male","21","Australia","29418","26627","imgNWTK/triangle.png","imgNWTK/square.png","imgNWTK/triangle.png","imgNWTK/square.png","noninfo","sub","3.06","","","","","","","","","","","","","",""
"3797","<p><b>Now, imagine that you clicked on the below button for another 10 trials (this includes <i> BOTH WIN and NO-WIN trials</i>).</p> <img src= 'imgNWTK/square.png'></img></br></br> <p><b>Please type the reward (number of points) you would expect to receive on every trial.</br> Click start to begin.</p>","0","html-button-response","72","465693","0.0-12.0","male","21","Australia","29418","26627","imgNWTK/triangle.png","imgNWTK/square.png","imgNWTK/triangle.png","imgNWTK/square.png","noninfo","sub","3.06","","","","","","","","","","","","","",""
"7030.799999982119","","","survey-number","73","472732","0.0-13.0-0.0","male","21","Australia","29418","26627","imgNWTK/triangle.png","imgNWTK/square.png","imgNWTK/triangle.png","imgNWTK/square.png","noninfo","sub","3.06","{""undefined"":""115""}","","","","","","","","","","","","imgNWTK/square.png",""
"5978.899999976158","","","survey-number","74","478721","0.0-13.0-0.1","male","21","Australia","29418","26627","imgNWTK/triangle.png","imgNWTK/square.png","imgNWTK/triangle.png","imgNWTK/square.png","noninfo","sub","3.06","{""undefined"":""79""}","","","","","","","","","","","","imgNWTK/square.png",""
"1298","","","survey-number","75","480026","0.0-13.0-0.2","male","21","Australia","29418","26627","imgNWTK/triangle.png","imgNWTK/square.png","imgNWTK/triangle.png","imgNWTK/square.png","noninfo","sub","3.06","{""undefined"":""0""}","","","","","","","","","","","","imgNWTK/square.png",""
"992.1999999880791","","","survey-number","76","481025","0.0-13.0-0.3","male","21","Australia","29418","26627","imgNWTK/triangle.png","imgNWTK/square.png","imgNWTK/triangle.png","imgNWTK/square.png","noninfo","sub","3.06","{""undefined"":""0""}","","","","","","","","","","","","imgNWTK/square.png",""
"4909.5","","","survey-number","77","485943","0.0-13.0-0.4","male","21","Australia","29418","26627","imgNWTK/triangle.png","imgNWTK/square.png","imgNWTK/triangle.png","imgNWTK/square.png","noninfo","sub","3.06","{""undefined"":""110""}","","","","","","","","","","","","imgNWTK/square.png",""
"3205.600000023842","","","survey-number","78","489160","0.0-13.0-0.5","male","21","Australia","29418","26627","imgNWTK/triangle.png","imgNWTK/square.png","imgNWTK/triangle.png","imgNWTK/square.png","noninfo","sub","3.06","{""undefined"":""79""}","","","","","","","","","","","","imgNWTK/square.png",""
"2072.5999999940395","","","survey-number","79","491243","0.0-13.0-0.6","male","21","Australia","29418","26627","imgNWTK/triangle.png","imgNWTK/square.png","imgNWTK/triangle.png","imgNWTK/square.png","noninfo","sub","3.06","{""undefined"":""0""}","","","","","","","","","","","","imgNWTK/square.png",""
"961.5999999940395","","","survey-number","80","492216","0.0-13.0-0.7","male","21","Australia","29418","26627","imgNWTK/triangle.png","imgNWTK/square.png","imgNWTK/triangle.png","imgNWTK/square.png","noninfo","sub","3.06","{""undefined"":""0""}","","","","","","","","","","","","imgNWTK/square.png",""
"682.6000000238419","","","survey-number","81","492905","0.0-13.0-0.8","male","21","Australia","29418","26627","imgNWTK/triangle.png","imgNWTK/square.png","imgNWTK/triangle.png","imgNWTK/square.png","noninfo","sub","3.06","{""undefined"":""0""}","","","","","","","","","","","","imgNWTK/square.png",""
"705.3000000119209","","","survey-number","82","493617","0.0-13.0-0.9","male","21","Australia","29418","26627","imgNWTK/triangle.png","imgNWTK/square.png","imgNWTK/triangle.png","imgNWTK/square.png","noninfo","sub","3.06","{""undefined"":""0""}","","","","","","","","","","","","imgNWTK/square.png",""
"3790","<p><b>Imagine that you clicked on the below button for another 10 trials (this includes <i> both WIN and NO-WIN trials</i>).</p> <img src= 'imgNWTK/triangle.png'></img></br></br> <p><b>Please type the reward (number of points) you would expect to receive on every trial.</br> Click start to begin.</p>","0","html-button-response","83","497411","0.0-14.0","male","21","Australia","29418","26627","imgNWTK/triangle.png","imgNWTK/square.png","imgNWTK/triangle.png","imgNWTK/square.png","noninfo","sub","3.06","","","","","","","","","","","","","",""
"2060.5","","","survey-number","84","499478","0.0-15.0-0.0","male","21","Australia","29418","26627","imgNWTK/triangle.png","imgNWTK/square.png","imgNWTK/triangle.png","imgNWTK/square.png","noninfo","sub","3.06","{""undefined"":""0""}","","","","","","","","","","","","imgNWTK/triangle.png",""
"5449.799999982119","","","survey-number","85","504938","0.0-15.0-0.1","male","21","Australia","29418","26627","imgNWTK/triangle.png","imgNWTK/square.png","imgNWTK/triangle.png","imgNWTK/square.png","noninfo","sub","3.06","{""undefined"":""125""}","","","","","","","","","","","","imgNWTK/triangle.png",""
"2552.199999988079","","","survey-number","86","507499","0.0-15.0-0.2","male","21","Australia","29418","26627","imgNWTK/triangle.png","imgNWTK/square.png","imgNWTK/triangle.png","imgNWTK/square.png","noninfo","sub","3.06","{""undefined"":""117""}","","","","","","","","","","","","imgNWTK/triangle.png",""
"2669.9000000059605","","","survey-number","87","510174","0.0-15.0-0.3","male","21","Australia","29418","26627","imgNWTK/triangle.png","imgNWTK/square.png","imgNWTK/triangle.png","imgNWTK/square.png","noninfo","sub","3.06","{""undefined"":""0""}","","","","","","","","","","","","imgNWTK/triangle.png",""
"1958.699999988079","","","survey-number","88","512143","0.0-15.0-0.4","male","21","Australia","29418","26627","imgNWTK/triangle.png","imgNWTK/square.png","imgNWTK/triangle.png","imgNWTK/square.png","noninfo","sub","3.06","{""undefined"":""79""}","","","","","","","","","","","","imgNWTK/triangle.png",""
"1255.2999999821186","","","survey-number","89","513407","0.0-15.0-0.5","male","21","Australia","29418","26627","imgNWTK/triangle.png","imgNWTK/square.png","imgNWTK/triangle.png","imgNWTK/square.png","noninfo","sub","3.06","{""undefined"":""0""}","","","","","","","","","","","","imgNWTK/triangle.png",""
"800.1999999880791","","","survey-number","90","514218","0.0-15.0-0.6","male","21","Australia","29418","26627","imgNWTK/triangle.png","imgNWTK/square.png","imgNWTK/triangle.png","imgNWTK/square.png","noninfo","sub","3.06","{""undefined"":""0""}","","","","","","","","","","","","imgNWTK/triangle.png",""
"827.5999999940395","","","survey-number","91","515053","0.0-15.0-0.7","male","21","Australia","29418","26627","imgNWTK/triangle.png","imgNWTK/square.png","imgNWTK/triangle.png","imgNWTK/square.png","noninfo","sub","3.06","{""undefined"":""0""}","","","","","","","","","","","","imgNWTK/triangle.png",""
"5384","","","survey-number","92","520443","0.0-15.0-0.8","male","21","Australia","29418","26627","imgNWTK/triangle.png","imgNWTK/square.png","imgNWTK/triangle.png","imgNWTK/square.png","noninfo","sub","3.06","{""undefined"":""75""}","","","","","","","","","","","","imgNWTK/triangle.png",""
"2820.5","","","survey-number","93","523271","0.0-15.0-0.9","male","21","Australia","29418","26627","imgNWTK/triangle.png","imgNWTK/square.png","imgNWTK/triangle.png","imgNWTK/square.png","noninfo","sub","3.06","{""undefined"":""80""}","","","","","","","","","","","","imgNWTK/triangle.png",""
"7156.200000017881","","","survey-number","94","530442","0.0-16.0","male","21","Australia","29418","26627","imgNWTK/triangle.png","imgNWTK/square.png","imgNWTK/triangle.png","imgNWTK/square.png","noninfo","sub","3.06","{""undefined"":""65""}","","","","","","","","","","","","","imgNWTK/square.png"
"33183.29999998212","","","survey-number","95","563635","0.0-17.0","male","21","Australia","29418","26627","imgNWTK/triangle.png","imgNWTK/square.png","imgNWTK/triangle.png","imgNWTK/square.png","noninfo","sub","3.06","{""undefined"":""100""}","","","","","","","","","","","","","imgNWTK/triangle.png"
"12048","<p style=""text-align:left;"">Great! We are almost at the end of the study... (Please do not close the browser window yet.)</p><p> Your final points balance is 3056, which equals to a bonus payment of $3.06. Please collect your payment from Mathews Building Room 721 (Mon-Fri 9am-5pm); please email amy.x.li@unsw.edu.au at least 24 hours prior to collection so that this is ready for you.</p><p style=""text-align:left;"">To view the debriefing form, please click <a href=""./imgNWTK/debrief_3205.pdf"" target=""_blank"">here</a> to download a copy.</p><p style=""text-align:left;"">Then, <b>please click the below button</b> to confirm that you have received your debrief and to complete the study. Upon clicking ""Finish!"", your SONA credit will be automatically assigned.</p>","0","html-button-response","96","575686","0.0-18.0","male","21","Australia","29418","26627","imgNWTK/triangle.png","imgNWTK/square.png","imgNWTK/triangle.png","imgNWTK/square.png","noninfo","sub","3.06","","","","","","","","","","","","","",""
