"rt","stimulus","button_pressed","trial_type","trial_index","time_elapsed","internal_node_id","gender","age","language","PID","sona_id","subStim","optStim","stim1","stim2","infoCond","optimCond","bonus","responses","banditTrial","choice","cue","feedback","estimateData","leftOption","rightOption","choiceName","leftInput","rightInput","key_press","postQ","singleEst"
"867","<p>Thank you for signing up to participate in SONA Study 465! <br> During this study, please focus on the experiment and refrain from activities such as:</p>- <b>Switching to other tabs on your browser (this will be monitored via the experiment)</br> - Using your mobile phone/cell phone</br> - Communicating with others</br></br></b><p>This way, you are helping to provide data that is useful for psychological research. We thank you for your cooperation!</p>","0","html-button-response","0","867","0.0-0.0","male","21","China","48974","26176","neither","neither","imgNWTK/KeepItSecret.jpg","imgNWTK/FindOutNow.jpg","info","eq","2.73","","","","","","","","","","","","","",""
"801","<p>Welcome to the experiment!</p><p>You will now read some instructions about the task. Press the 'Next' button to continue. </p>","0","html-button-response","1","1669","0.0-1.0","male","21","China","48974","26176","neither","neither","imgNWTK/KeepItSecret.jpg","imgNWTK/FindOutNow.jpg","info","eq","2.73","","","","","","","","","","","","","",""
"35839","<p> On each trial throughout the experiment you will choose between the options </br><b> Find Out Now </b> and <b> Keep It Secret </b>, as shown below.</p><div><div style= 'float: left; width: 300px; margin: 10px 10px;'><img src= 'imgNWTK/KeepItSecret.jpg'></img></div><div style= 'float: right; width: 300px; margin: 10px 10px;'><img src= 'imgNWTK/FindOutNow.jpg'></img></div></div><br/><br/><br/><br/><br/><br/><br/><br/><br/><br/><br/><p>Each option results in winning points or receiving 0 points.</br>There is a 50% chance of either winning or receiving 0 points.</p><p>You won't receive the outcome until after a <b> 20 second delay</b>. However, selecting the Find Out Now option will allow you to find out about the outcome early, whereas the Keep It Secret option will not. </p>","0","html-button-response","2","37510","0.0-2.0-0.0","male","21","China","48974","26176","neither","neither","imgNWTK/KeepItSecret.jpg","imgNWTK/FindOutNow.jpg","info","eq","2.73","","","","","","","","","","","","","",""
"23255","<img src= 'cues/Experiment6.png'></img><p>As seen above, when choosing the <b>'Find Out Now'</b> option, you will receive either a happy face or sad face.</br>The happy face means you will win points after the delay, whereas the sad face means you will receive 0 points.</br></p><p> When choosing the <b> 'Keep it Secret' </b> option you will receive a confused face.</br> This face appears regardless of whether you are going to win points or not. </p>In short, choosing 'Find Out Now' allows you to find out the outcome before you experience it (after the delay).</br></br>","0","html-button-response","3","60765","0.0-2.0-1.0","male","21","China","48974","26176","neither","neither","imgNWTK/KeepItSecret.jpg","imgNWTK/FindOutNow.jpg","info","eq","2.73","","","","","","","","","","","","","",""
"8138","<img src= 'cues/winTrials_info.png' width = '1200'></img><p>To reiterate, 50% of the outcomes of each option will be WIN TRIALS, and the other 50% will be NO-WIN TRIALS.","0","html-button-response","4","68905","0.0-2.0-2.0","male","21","China","48974","26176","neither","neither","imgNWTK/KeepItSecret.jpg","imgNWTK/FindOutNow.jpg","info","eq","2.73","","","","","","","","","","","","","",""
"1420","<p> There will be <b>four blocks</b> in the experiment.</br>You will be given a short 15 second break between each block.</p><p><b>The points and the options will remain the same between the blocks.</b></p>The blocks are there just to give you a small break.</br></br><p>The points you earn in the task are also equal to <b> actual money</b>.</br> <b>1000 points is equal to $1.</b></p><p>This is the rate you will be paid at the experiment's end.","0","html-button-response","5","70326","0.0-2.0-3.0","male","21","China","48974","26176","neither","neither","imgNWTK/KeepItSecret.jpg","imgNWTK/FindOutNow.jpg","info","eq","2.73","","","","","","","","","","","","","",""
"13945","","","survey-multi-choice","6","84273","0.0-2.0-4.0","male","21","China","48974","26176","neither","neither","imgNWTK/KeepItSecret.jpg","imgNWTK/FindOutNow.jpg","info","eq","2.73","{""Q0"":""20 Seconds"",""Q1"":""True"",""Q2"":""Equally"",""Q3"":""True""}","","","","","","","","","","","","",""
"1010","<p> Well done, all your answers were correct! <br> The experiment is about to start now. <br/> Click start to continue, or email your researcher <b>(amy.x.li@unsw.edu.au)</b> if you have any questions before starting.","0","html-button-response","7","85284","0.0-3.0","male","21","China","48974","26176","neither","neither","imgNWTK/KeepItSecret.jpg","imgNWTK/FindOutNow.jpg","info","eq","2.73","","","","","","","","","","","","","",""
"1162","","","bandit-task-exp6","8","108681","0.0-4.0-0.0","male","21","China","48974","26176","neither","neither","imgNWTK/KeepItSecret.jpg","imgNWTK/FindOutNow.jpg","info","eq","2.73","","1","2","2","106","null","imgNWTK/FindOutNow.jpg","imgNWTK/KeepItSecret.jpg","imgNWTK/FindOutNow.jpg","NaN","NaN","","",""
"4737","","","bandit-task-exp6","9","135228","0.0-4.0-0.1","male","21","China","48974","26176","neither","neither","imgNWTK/KeepItSecret.jpg","imgNWTK/FindOutNow.jpg","info","eq","2.73","","2","1","2","0","null","imgNWTK/KeepItSecret.jpg","imgNWTK/FindOutNow.jpg","imgNWTK/KeepItSecret.jpg","NaN","NaN","","",""
"1170","","","bandit-task-exp6","10","158962","0.0-4.0-0.2","male","21","China","48974","26176","neither","neither","imgNWTK/KeepItSecret.jpg","imgNWTK/FindOutNow.jpg","info","eq","2.73","","3","2","2","102","null","imgNWTK/FindOutNow.jpg","imgNWTK/KeepItSecret.jpg","imgNWTK/FindOutNow.jpg","NaN","NaN","","",""
"1540","","","bandit-task-exp6","11","182499","0.0-4.0-0.3","male","21","China","48974","26176","neither","neither","imgNWTK/KeepItSecret.jpg","imgNWTK/FindOutNow.jpg","info","eq","2.73","","4","2","1","0","null","imgNWTK/FindOutNow.jpg","imgNWTK/KeepItSecret.jpg","imgNWTK/FindOutNow.jpg","NaN","NaN","","",""
"1072","","","bandit-task-exp6","12","209945","0.0-4.0-0.4","male","21","China","48974","26176","neither","neither","imgNWTK/KeepItSecret.jpg","imgNWTK/FindOutNow.jpg","info","eq","2.73","","5","1","2","0","null","imgNWTK/KeepItSecret.jpg","imgNWTK/FindOutNow.jpg","imgNWTK/KeepItSecret.jpg","NaN","NaN","","",""
"1368","","","bandit-task-exp6","13","234060","0.0-4.0-0.5","male","21","China","48974","26176","neither","neither","imgNWTK/KeepItSecret.jpg","imgNWTK/FindOutNow.jpg","info","eq","2.73","","6","1","2","0","null","imgNWTK/KeepItSecret.jpg","imgNWTK/FindOutNow.jpg","imgNWTK/KeepItSecret.jpg","NaN","NaN","","",""
"905","","","bandit-task-exp6","14","257077","0.0-4.0-0.6","male","21","China","48974","26176","neither","neither","imgNWTK/KeepItSecret.jpg","imgNWTK/FindOutNow.jpg","info","eq","2.73","","7","2","1","0","null","imgNWTK/FindOutNow.jpg","imgNWTK/KeepItSecret.jpg","imgNWTK/FindOutNow.jpg","NaN","NaN","","",""
"815","","","bandit-task-exp6","15","280988","0.0-4.0-0.7","male","21","China","48974","26176","neither","neither","imgNWTK/KeepItSecret.jpg","imgNWTK/FindOutNow.jpg","info","eq","2.73","","8","2","1","0","null","imgNWTK/KeepItSecret.jpg","imgNWTK/FindOutNow.jpg","imgNWTK/FindOutNow.jpg","NaN","NaN","","",""
"5693","","","bandit-task-exp6","16","309093","0.0-4.0-0.8","male","21","China","48974","26176","neither","neither","imgNWTK/KeepItSecret.jpg","imgNWTK/FindOutNow.jpg","info","eq","2.73","","9","2","1","0","null","imgNWTK/KeepItSecret.jpg","imgNWTK/FindOutNow.jpg","imgNWTK/FindOutNow.jpg","NaN","NaN","","",""
"15056","","","bandit-task-exp6","17","352141","0.0-4.0-0.9","male","21","China","48974","26176","neither","neither","imgNWTK/KeepItSecret.jpg","imgNWTK/FindOutNow.jpg","info","eq","2.73","","10","2","2","103","null","imgNWTK/KeepItSecret.jpg","imgNWTK/FindOutNow.jpg","imgNWTK/FindOutNow.jpg","NaN","NaN","","",""
"7510","","","bandit-task-exp6","18","381623","0.0-4.0-0.10","male","21","China","48974","26176","neither","neither","imgNWTK/KeepItSecret.jpg","imgNWTK/FindOutNow.jpg","info","eq","2.73","","11","1","1","110","null","imgNWTK/KeepItSecret.jpg","imgNWTK/FindOutNow.jpg","imgNWTK/KeepItSecret.jpg","NaN","NaN","","",""
"11456","","","bandit-task-exp6","19","421269","0.0-4.0-0.11","male","21","China","48974","26176","neither","neither","imgNWTK/KeepItSecret.jpg","imgNWTK/FindOutNow.jpg","info","eq","2.73","","12","2","2","92","null","imgNWTK/FindOutNow.jpg","imgNWTK/KeepItSecret.jpg","imgNWTK/FindOutNow.jpg","NaN","NaN","","",""
"9434","","","bandit-task-exp6","20","455201","0.0-4.0-0.12","male","21","China","48974","26176","neither","neither","imgNWTK/KeepItSecret.jpg","imgNWTK/FindOutNow.jpg","info","eq","2.73","","13","1","1","92","null","imgNWTK/KeepItSecret.jpg","imgNWTK/FindOutNow.jpg","imgNWTK/KeepItSecret.jpg","NaN","NaN","","",""
"8669","","","bandit-task-exp6","21","487953","0.0-4.0-0.13","male","21","China","48974","26176","neither","neither","imgNWTK/KeepItSecret.jpg","imgNWTK/FindOutNow.jpg","info","eq","2.73","","14","2","2","110","null","imgNWTK/KeepItSecret.jpg","imgNWTK/FindOutNow.jpg","imgNWTK/FindOutNow.jpg","NaN","NaN","","",""
"760","","","bandit-task-exp6","22","510639","0.0-4.0-0.14","male","21","China","48974","26176","neither","neither","imgNWTK/KeepItSecret.jpg","imgNWTK/FindOutNow.jpg","info","eq","2.73","","15","1","1","99","null","imgNWTK/KeepItSecret.jpg","imgNWTK/FindOutNow.jpg","imgNWTK/KeepItSecret.jpg","NaN","NaN","","",""
"null","<p><b> Congratulations, you have finished this block. </b> </p><p>Please take a short break before moving onto the next block.</p><p>The next block will start after a 15 second break.</p><b>Remember, the point rewards are the same between blocks","","html-keyboard-response","23","525652","0.0-5.0","male","21","China","48974","26176","neither","neither","imgNWTK/KeepItSecret.jpg","imgNWTK/FindOutNow.jpg","info","eq","2.73","","","","","","","","","","","","null","",""
"4869","","","bandit-task-exp6","24","552373","0.0-6.0-0.0","male","21","China","48974","26176","neither","neither","imgNWTK/KeepItSecret.jpg","imgNWTK/FindOutNow.jpg","info","eq","2.73","","16","2","1","0","null","imgNWTK/KeepItSecret.jpg","imgNWTK/FindOutNow.jpg","imgNWTK/FindOutNow.jpg","NaN","NaN","","",""
"966","","","bandit-task-exp6","25","579897","0.0-6.0-0.1","male","21","China","48974","26176","neither","neither","imgNWTK/KeepItSecret.jpg","imgNWTK/FindOutNow.jpg","info","eq","2.73","","17","2","1","0","null","imgNWTK/KeepItSecret.jpg","imgNWTK/FindOutNow.jpg","imgNWTK/FindOutNow.jpg","NaN","NaN","","",""
"9688","","","bandit-task-exp6","26","611496","0.0-6.0-0.2","male","21","China","48974","26176","neither","neither","imgNWTK/KeepItSecret.jpg","imgNWTK/FindOutNow.jpg","info","eq","2.73","","18","2","1","0","null","imgNWTK/FindOutNow.jpg","imgNWTK/KeepItSecret.jpg","imgNWTK/FindOutNow.jpg","NaN","NaN","","",""
"795","","","bandit-task-exp6","27","634315","0.0-6.0-0.3","male","21","China","48974","26176","neither","neither","imgNWTK/KeepItSecret.jpg","imgNWTK/FindOutNow.jpg","info","eq","2.73","","19","1","1","106","null","imgNWTK/FindOutNow.jpg","imgNWTK/KeepItSecret.jpg","imgNWTK/KeepItSecret.jpg","NaN","NaN","","",""
"2925","","","bandit-task-exp6","28","662383","0.0-6.0-0.4","male","21","China","48974","26176","neither","neither","imgNWTK/KeepItSecret.jpg","imgNWTK/FindOutNow.jpg","info","eq","2.73","","20","1","2","0","null","imgNWTK/KeepItSecret.jpg","imgNWTK/FindOutNow.jpg","imgNWTK/KeepItSecret.jpg","NaN","NaN","","",""
"10746","","","bandit-task-exp6","29","696004","0.0-6.0-0.5","male","21","China","48974","26176","neither","neither","imgNWTK/KeepItSecret.jpg","imgNWTK/FindOutNow.jpg","info","eq","2.73","","21","1","2","0","null","imgNWTK/FindOutNow.jpg","imgNWTK/KeepItSecret.jpg","imgNWTK/KeepItSecret.jpg","NaN","NaN","","",""
"10607","","","bandit-task-exp6","30","728350","0.0-6.0-0.6","male","21","China","48974","26176","neither","neither","imgNWTK/KeepItSecret.jpg","imgNWTK/FindOutNow.jpg","info","eq","2.73","","22","2","2","95","null","imgNWTK/FindOutNow.jpg","imgNWTK/KeepItSecret.jpg","imgNWTK/FindOutNow.jpg","NaN","NaN","","",""
"919","","","bandit-task-exp6","31","752558","0.0-6.0-0.7","male","21","China","48974","26176","neither","neither","imgNWTK/KeepItSecret.jpg","imgNWTK/FindOutNow.jpg","info","eq","2.73","","23","1","2","0","null","imgNWTK/FindOutNow.jpg","imgNWTK/KeepItSecret.jpg","imgNWTK/KeepItSecret.jpg","NaN","NaN","","",""
"4567","","","bandit-task-exp6","32","779059","0.0-6.0-0.8","male","21","China","48974","26176","neither","neither","imgNWTK/KeepItSecret.jpg","imgNWTK/FindOutNow.jpg","info","eq","2.73","","24","2","1","0","null","imgNWTK/KeepItSecret.jpg","imgNWTK/FindOutNow.jpg","imgNWTK/FindOutNow.jpg","NaN","NaN","","",""
"6614","","","bandit-task-exp6","33","808756","0.0-6.0-0.9","male","21","China","48974","26176","neither","neither","imgNWTK/KeepItSecret.jpg","imgNWTK/FindOutNow.jpg","info","eq","2.73","","25","2","1","0","null","imgNWTK/KeepItSecret.jpg","imgNWTK/FindOutNow.jpg","imgNWTK/FindOutNow.jpg","NaN","NaN","","",""
"8372","","","bandit-task-exp6","34","839711","0.0-6.0-0.10","male","21","China","48974","26176","neither","neither","imgNWTK/KeepItSecret.jpg","imgNWTK/FindOutNow.jpg","info","eq","2.73","","26","1","2","0","null","imgNWTK/KeepItSecret.jpg","imgNWTK/FindOutNow.jpg","imgNWTK/KeepItSecret.jpg","NaN","NaN","","",""
"1843","","","bandit-task-exp6","35","863971","0.0-6.0-0.11","male","21","China","48974","26176","neither","neither","imgNWTK/KeepItSecret.jpg","imgNWTK/FindOutNow.jpg","info","eq","2.73","","27","2","1","0","null","imgNWTK/FindOutNow.jpg","imgNWTK/KeepItSecret.jpg","imgNWTK/FindOutNow.jpg","NaN","NaN","","",""
"11418","","","bandit-task-exp6","36","898352","0.0-6.0-0.12","male","21","China","48974","26176","neither","neither","imgNWTK/KeepItSecret.jpg","imgNWTK/FindOutNow.jpg","info","eq","2.73","","28","2","2","107","null","imgNWTK/KeepItSecret.jpg","imgNWTK/FindOutNow.jpg","imgNWTK/FindOutNow.jpg","NaN","NaN","","",""
"10745","","","bandit-task-exp6","37","934058","0.0-6.0-0.13","male","21","China","48974","26176","neither","neither","imgNWTK/KeepItSecret.jpg","imgNWTK/FindOutNow.jpg","info","eq","2.73","","29","2","2","110","null","imgNWTK/KeepItSecret.jpg","imgNWTK/FindOutNow.jpg","imgNWTK/FindOutNow.jpg","NaN","NaN","","",""
"7551","","","bandit-task-exp6","38","963684","0.0-6.0-0.14","male","21","China","48974","26176","neither","neither","imgNWTK/KeepItSecret.jpg","imgNWTK/FindOutNow.jpg","info","eq","2.73","","30","1","1","97","null","imgNWTK/FindOutNow.jpg","imgNWTK/KeepItSecret.jpg","imgNWTK/KeepItSecret.jpg","NaN","NaN","","",""
"null","<p><b> Congratulations, you have finished this block. </b> </p><p>Please take a short break before moving onto the next block.</p><p>The next block will start after a 15 second break.</p><b>Remember, the point rewards are the same between blocks","","html-keyboard-response","39","978686","0.0-7.0","male","21","China","48974","26176","neither","neither","imgNWTK/KeepItSecret.jpg","imgNWTK/FindOutNow.jpg","info","eq","2.73","","","","","","","","","","","","null","",""
"120","","","bandit-task-exp6","40","1006014","0.0-8.0-0.0","male","21","China","48974","26176","neither","neither","imgNWTK/KeepItSecret.jpg","imgNWTK/FindOutNow.jpg","info","eq","2.73","","31","1","2","0","null","imgNWTK/FindOutNow.jpg","imgNWTK/KeepItSecret.jpg","imgNWTK/KeepItSecret.jpg","NaN","NaN","","",""
"11865","","","bandit-task-exp6","41","1061293","0.0-8.0-0.1","male","21","China","48974","26176","neither","neither","imgNWTK/KeepItSecret.jpg","imgNWTK/FindOutNow.jpg","info","eq","2.73","","32","2","1","0","null","imgNWTK/KeepItSecret.jpg","imgNWTK/FindOutNow.jpg","imgNWTK/FindOutNow.jpg","NaN","NaN","","",""
"5217","","","bandit-task-exp6","42","1088350","0.0-8.0-0.2","male","21","China","48974","26176","neither","neither","imgNWTK/KeepItSecret.jpg","imgNWTK/FindOutNow.jpg","info","eq","2.73","","33","2","1","0","null","imgNWTK/KeepItSecret.jpg","imgNWTK/FindOutNow.jpg","imgNWTK/FindOutNow.jpg","NaN","NaN","","",""
"5826","","","bandit-task-exp6","43","1117458","0.0-8.0-0.3","male","21","China","48974","26176","neither","neither","imgNWTK/KeepItSecret.jpg","imgNWTK/FindOutNow.jpg","info","eq","2.73","","34","2","1","0","null","imgNWTK/FindOutNow.jpg","imgNWTK/KeepItSecret.jpg","imgNWTK/FindOutNow.jpg","NaN","NaN","","",""
"16081","","","bandit-task-exp6","44","1166909","0.0-8.0-0.4","male","21","China","48974","26176","neither","neither","imgNWTK/KeepItSecret.jpg","imgNWTK/FindOutNow.jpg","info","eq","2.73","","35","2","2","97","null","imgNWTK/KeepItSecret.jpg","imgNWTK/FindOutNow.jpg","imgNWTK/FindOutNow.jpg","NaN","NaN","","",""
"11694","","","bandit-task-exp6","45","1203932","0.0-8.0-0.5","male","21","China","48974","26176","neither","neither","imgNWTK/KeepItSecret.jpg","imgNWTK/FindOutNow.jpg","info","eq","2.73","","36","1","1","101","null","imgNWTK/FindOutNow.jpg","imgNWTK/KeepItSecret.jpg","imgNWTK/KeepItSecret.jpg","NaN","NaN","","",""
"9029","","","bandit-task-exp6","46","1235818","0.0-8.0-0.6","male","21","China","48974","26176","neither","neither","imgNWTK/KeepItSecret.jpg","imgNWTK/FindOutNow.jpg","info","eq","2.73","","37","2","1","0","null","imgNWTK/FindOutNow.jpg","imgNWTK/KeepItSecret.jpg","imgNWTK/FindOutNow.jpg","NaN","NaN","","",""
"14018","","","bandit-task-exp6","47","1276089","0.0-8.0-0.7","male","21","China","48974","26176","neither","neither","imgNWTK/KeepItSecret.jpg","imgNWTK/FindOutNow.jpg","info","eq","2.73","","38","2","1","0","null","imgNWTK/KeepItSecret.jpg","imgNWTK/FindOutNow.jpg","imgNWTK/FindOutNow.jpg","NaN","NaN","","",""
"6110","","","bandit-task-exp6","48","1304122","0.0-8.0-0.8","male","21","China","48974","26176","neither","neither","imgNWTK/KeepItSecret.jpg","imgNWTK/FindOutNow.jpg","info","eq","2.73","","39","2","2","103","null","imgNWTK/FindOutNow.jpg","imgNWTK/KeepItSecret.jpg","imgNWTK/FindOutNow.jpg","NaN","NaN","","",""
"8369","","","bandit-task-exp6","49","1334616","0.0-8.0-0.9","male","21","China","48974","26176","neither","neither","imgNWTK/KeepItSecret.jpg","imgNWTK/FindOutNow.jpg","info","eq","2.73","","40","2","2","92","null","imgNWTK/FindOutNow.jpg","imgNWTK/KeepItSecret.jpg","imgNWTK/FindOutNow.jpg","NaN","NaN","","",""
"1864","","","bandit-task-exp6","50","1359005","0.0-8.0-0.10","male","21","China","48974","26176","neither","neither","imgNWTK/KeepItSecret.jpg","imgNWTK/FindOutNow.jpg","info","eq","2.73","","41","2","2","105","null","imgNWTK/KeepItSecret.jpg","imgNWTK/FindOutNow.jpg","imgNWTK/FindOutNow.jpg","NaN","NaN","","",""
"5238","","","bandit-task-exp6","51","1386627","0.0-8.0-0.11","male","21","China","48974","26176","neither","neither","imgNWTK/KeepItSecret.jpg","imgNWTK/FindOutNow.jpg","info","eq","2.73","","42","1","2","0","null","imgNWTK/FindOutNow.jpg","imgNWTK/KeepItSecret.jpg","imgNWTK/KeepItSecret.jpg","NaN","NaN","","",""
"1246","","","bandit-task-exp6","52","1410655","0.0-8.0-0.12","male","21","China","48974","26176","neither","neither","imgNWTK/KeepItSecret.jpg","imgNWTK/FindOutNow.jpg","info","eq","2.73","","43","2","2","97","null","imgNWTK/KeepItSecret.jpg","imgNWTK/FindOutNow.jpg","imgNWTK/FindOutNow.jpg","NaN","NaN","","",""
"6152","","","bandit-task-exp6","53","1439775","0.0-8.0-0.13","male","21","China","48974","26176","neither","neither","imgNWTK/KeepItSecret.jpg","imgNWTK/FindOutNow.jpg","info","eq","2.73","","44","2","1","0","null","imgNWTK/KeepItSecret.jpg","imgNWTK/FindOutNow.jpg","imgNWTK/FindOutNow.jpg","NaN","NaN","","",""
"6746","","","bandit-task-exp6","54","1470530","0.0-8.0-0.14","male","21","China","48974","26176","neither","neither","imgNWTK/KeepItSecret.jpg","imgNWTK/FindOutNow.jpg","info","eq","2.73","","45","2","2","92","null","imgNWTK/KeepItSecret.jpg","imgNWTK/FindOutNow.jpg","imgNWTK/FindOutNow.jpg","NaN","NaN","","",""
"null","<p><b> Congratulations, you have finished this block. </b> </p><p>Please take a short break before moving onto the next block.</p><p>The next block will start after a 15 second break.</p><b>Remember, the point rewards are the same between blocks","","html-keyboard-response","55","1485532","0.0-9.0","male","21","China","48974","26176","neither","neither","imgNWTK/KeepItSecret.jpg","imgNWTK/FindOutNow.jpg","info","eq","2.73","","","","","","","","","","","","null","",""
"34532","","","bandit-task-exp6","56","1543400","0.0-10.0-0.0","male","21","China","48974","26176","neither","neither","imgNWTK/KeepItSecret.jpg","imgNWTK/FindOutNow.jpg","info","eq","2.73","","46","2","2","102","null","imgNWTK/KeepItSecret.jpg","imgNWTK/FindOutNow.jpg","imgNWTK/FindOutNow.jpg","106","92","","",""
"10608","","","bandit-task-exp6","57","1576787","0.0-10.0-0.1","male","21","China","48974","26176","neither","neither","imgNWTK/KeepItSecret.jpg","imgNWTK/FindOutNow.jpg","info","eq","2.73","","47","2","1","0","null","imgNWTK/FindOutNow.jpg","imgNWTK/KeepItSecret.jpg","imgNWTK/FindOutNow.jpg","110","98","","",""
"11952","","","bandit-task-exp6","58","1612851","0.0-10.0-0.2","male","21","China","48974","26176","neither","neither","imgNWTK/KeepItSecret.jpg","imgNWTK/FindOutNow.jpg","info","eq","2.73","","48","2","1","0","null","imgNWTK/FindOutNow.jpg","imgNWTK/KeepItSecret.jpg","imgNWTK/FindOutNow.jpg","106","110","","",""
"12202","","","bandit-task-exp6","59","1647709","0.0-10.0-0.3","male","21","China","48974","26176","neither","neither","imgNWTK/KeepItSecret.jpg","imgNWTK/FindOutNow.jpg","info","eq","2.73","","49","1","1","110","null","imgNWTK/FindOutNow.jpg","imgNWTK/KeepItSecret.jpg","imgNWTK/KeepItSecret.jpg","92","108","","",""
"11915","","","bandit-task-exp6","60","1681184","0.0-10.0-0.4","male","21","China","48974","26176","neither","neither","imgNWTK/KeepItSecret.jpg","imgNWTK/FindOutNow.jpg","info","eq","2.73","","50","1","1","90","null","imgNWTK/KeepItSecret.jpg","imgNWTK/FindOutNow.jpg","imgNWTK/KeepItSecret.jpg","96","98","","",""
"7165","","","bandit-task-exp6","61","1711831","0.0-10.0-0.5","male","21","China","48974","26176","neither","neither","imgNWTK/KeepItSecret.jpg","imgNWTK/FindOutNow.jpg","info","eq","2.73","","51","2","2","103","null","imgNWTK/FindOutNow.jpg","imgNWTK/KeepItSecret.jpg","imgNWTK/FindOutNow.jpg","110","90","","",""
"14866","","","bandit-task-exp6","62","1749659","0.0-10.0-0.6","male","21","China","48974","26176","neither","neither","imgNWTK/KeepItSecret.jpg","imgNWTK/FindOutNow.jpg","info","eq","2.73","","52","2","2","108","null","imgNWTK/FindOutNow.jpg","imgNWTK/KeepItSecret.jpg","imgNWTK/FindOutNow.jpg","104","90","","",""
"15302","","","bandit-task-exp6","63","1787993","0.0-10.0-0.7","male","21","China","48974","26176","neither","neither","imgNWTK/KeepItSecret.jpg","imgNWTK/FindOutNow.jpg","info","eq","2.73","","53","1","2","0","null","imgNWTK/FindOutNow.jpg","imgNWTK/KeepItSecret.jpg","imgNWTK/KeepItSecret.jpg","105","108","","",""
"14456","","","bandit-task-exp6","64","1825906","0.0-10.0-0.8","male","21","China","48974","26176","neither","neither","imgNWTK/KeepItSecret.jpg","imgNWTK/FindOutNow.jpg","info","eq","2.73","","54","2","2","91","null","imgNWTK/FindOutNow.jpg","imgNWTK/KeepItSecret.jpg","imgNWTK/FindOutNow.jpg","98","105","","",""
"18523","","","bandit-task-exp6","65","1867338","0.0-10.0-0.9","male","21","China","48974","26176","neither","neither","imgNWTK/KeepItSecret.jpg","imgNWTK/FindOutNow.jpg","info","eq","2.73","","55","2","1","0","null","imgNWTK/FindOutNow.jpg","imgNWTK/KeepItSecret.jpg","imgNWTK/FindOutNow.jpg","90","105","","",""
"16050","","","bandit-task-exp6","66","1905055","0.0-10.0-0.10","male","21","China","48974","26176","neither","neither","imgNWTK/KeepItSecret.jpg","imgNWTK/FindOutNow.jpg","info","eq","2.73","","56","2","1","0","null","imgNWTK/KeepItSecret.jpg","imgNWTK/FindOutNow.jpg","imgNWTK/FindOutNow.jpg","95","100","","",""
"12837","","","bandit-task-exp6","67","1939762","0.0-10.0-0.11","male","21","China","48974","26176","neither","neither","imgNWTK/KeepItSecret.jpg","imgNWTK/FindOutNow.jpg","info","eq","2.73","","57","1","2","0","null","imgNWTK/FindOutNow.jpg","imgNWTK/KeepItSecret.jpg","imgNWTK/KeepItSecret.jpg","110","105","","",""
"4752","","","bandit-task-exp6","68","1966945","0.0-10.0-0.12","male","21","China","48974","26176","neither","neither","imgNWTK/KeepItSecret.jpg","imgNWTK/FindOutNow.jpg","info","eq","2.73","","58","2","1","0","null","imgNWTK/FindOutNow.jpg","imgNWTK/KeepItSecret.jpg","imgNWTK/FindOutNow.jpg","102","108","","",""
"8906","","","bandit-task-exp6","69","2001007","0.0-10.0-0.13","male","21","China","48974","26176","neither","neither","imgNWTK/KeepItSecret.jpg","imgNWTK/FindOutNow.jpg","info","eq","2.73","","59","2","1","0","null","imgNWTK/FindOutNow.jpg","imgNWTK/KeepItSecret.jpg","imgNWTK/FindOutNow.jpg","106","98","","",""
"5155","","","bandit-task-exp6","70","2029301","0.0-10.0-0.14","male","21","China","48974","26176","neither","neither","imgNWTK/KeepItSecret.jpg","imgNWTK/FindOutNow.jpg","info","eq","2.73","","60","1","1","108","null","imgNWTK/FindOutNow.jpg","imgNWTK/KeepItSecret.jpg","imgNWTK/KeepItSecret.jpg","96","108","","",""
"4244","<p> Congratulations, you have finished the main part of the experiment. </p><p>Before you finish, we have a few short questions about the options and outcomes you saw in the task.</p>","0","html-button-response","71","2033546","0.0-11.0","male","21","China","48974","26176","neither","neither","imgNWTK/KeepItSecret.jpg","imgNWTK/FindOutNow.jpg","info","eq","2.73","","","","","","","","","","","","","",""
"9961","<p><b>Now, imagine that you clicked on the below button for another 10 trials (this includes <i> BOTH WIN and NO-WIN trials</i>).</p> <img src= 'imgNWTK/KeepItSecret.jpg'></img></br></br> <p><b>Please type the reward (number of points) you would expect to receive on every trial.</br> Click start to begin.</p>","0","html-button-response","72","2043509","0.0-12.0","male","21","China","48974","26176","neither","neither","imgNWTK/KeepItSecret.jpg","imgNWTK/FindOutNow.jpg","info","eq","2.73","","","","","","","","","","","","","",""
"5922.19999999553","","","survey-number","73","2049434","0.0-13.0-0.0","male","21","China","48974","26176","neither","neither","imgNWTK/KeepItSecret.jpg","imgNWTK/FindOutNow.jpg","info","eq","2.73","{""undefined"":""5""}","","","","","","","","","","","","imgNWTK/KeepItSecret.jpg",""
"6159.39999999851","","","survey-number","74","2055595","0.0-13.0-0.1","male","21","China","48974","26176","neither","neither","imgNWTK/KeepItSecret.jpg","imgNWTK/FindOutNow.jpg","info","eq","2.73","{""undefined"":""108""}","","","","","","","","","","","","imgNWTK/KeepItSecret.jpg",""
"2354.5","","","survey-number","75","2057952","0.0-13.0-0.2","male","21","China","48974","26176","neither","neither","imgNWTK/KeepItSecret.jpg","imgNWTK/FindOutNow.jpg","info","eq","2.73","{""undefined"":""110""}","","","","","","","","","","","","imgNWTK/KeepItSecret.jpg",""
"2594.89999999851","","","survey-number","76","2060549","0.0-13.0-0.3","male","21","China","48974","26176","neither","neither","imgNWTK/KeepItSecret.jpg","imgNWTK/FindOutNow.jpg","info","eq","2.73","{""undefined"":""105""}","","","","","","","","","","","","imgNWTK/KeepItSecret.jpg",""
"2715.2999999970198","","","survey-number","77","2063266","0.0-13.0-0.4","male","21","China","48974","26176","neither","neither","imgNWTK/KeepItSecret.jpg","imgNWTK/FindOutNow.jpg","info","eq","2.73","{""undefined"":""106""}","","","","","","","","","","","","imgNWTK/KeepItSecret.jpg",""
"1684.4000000059605","","","survey-number","78","2064952","0.0-13.0-0.5","male","21","China","48974","26176","neither","neither","imgNWTK/KeepItSecret.jpg","imgNWTK/FindOutNow.jpg","info","eq","2.73","{""undefined"":""110""}","","","","","","","","","","","","imgNWTK/KeepItSecret.jpg",""
"1679.6999999955297","","","survey-number","79","2066634","0.0-13.0-0.6","male","21","China","48974","26176","neither","neither","imgNWTK/KeepItSecret.jpg","imgNWTK/FindOutNow.jpg","info","eq","2.73","{""undefined"":""98""}","","","","","","","","","","","","imgNWTK/KeepItSecret.jpg",""
"1181.1999999955297","","","survey-number","80","2067817","0.0-13.0-0.7","male","21","China","48974","26176","neither","neither","imgNWTK/KeepItSecret.jpg","imgNWTK/FindOutNow.jpg","info","eq","2.73","{""undefined"":""96""}","","","","","","","","","","","","imgNWTK/KeepItSecret.jpg",""
"1512.1999999955297","","","survey-number","81","2069331","0.0-13.0-0.8","male","21","China","48974","26176","neither","neither","imgNWTK/KeepItSecret.jpg","imgNWTK/FindOutNow.jpg","info","eq","2.73","{""undefined"":""108""}","","","","","","","","","","","","imgNWTK/KeepItSecret.jpg",""
"1016","","","survey-number","82","2070348","0.0-13.0-0.9","male","21","China","48974","26176","neither","neither","imgNWTK/KeepItSecret.jpg","imgNWTK/FindOutNow.jpg","info","eq","2.73","{""undefined"":""110""}","","","","","","","","","","","","imgNWTK/KeepItSecret.jpg",""
"54732","<p><b>Imagine that you clicked on the below button for another 10 trials (this includes <i> both WIN and NO-WIN trials</i>).</p> <img src= 'imgNWTK/FindOutNow.jpg'></img></br></br> <p><b>Please type the reward (number of points) you would expect to receive on every trial.</br> Click start to begin.</p>","0","html-button-response","83","2125081","0.0-14.0","male","21","China","48974","26176","neither","neither","imgNWTK/KeepItSecret.jpg","imgNWTK/FindOutNow.jpg","info","eq","2.73","","","","","","","","","","","","","",""
"3786.60000000149","","","survey-number","84","2128870","0.0-15.0-0.0","male","21","China","48974","26176","neither","neither","imgNWTK/KeepItSecret.jpg","imgNWTK/FindOutNow.jpg","info","eq","2.73","{""undefined"":""96""}","","","","","","","","","","","","imgNWTK/FindOutNow.jpg",""
"1894","","","survey-number","85","2130766","0.0-15.0-0.1","male","21","China","48974","26176","neither","neither","imgNWTK/KeepItSecret.jpg","imgNWTK/FindOutNow.jpg","info","eq","2.73","{""undefined"":""106""}","","","","","","","","","","","","imgNWTK/FindOutNow.jpg",""
"867.6000000014901","","","survey-number","86","2131635","0.0-15.0-0.2","male","21","China","48974","26176","neither","neither","imgNWTK/KeepItSecret.jpg","imgNWTK/FindOutNow.jpg","info","eq","2.73","{""undefined"":""104""}","","","","","","","","","","","","imgNWTK/FindOutNow.jpg",""
"953.2999999970198","","","survey-number","87","2132590","0.0-15.0-0.3","male","21","China","48974","26176","neither","neither","imgNWTK/KeepItSecret.jpg","imgNWTK/FindOutNow.jpg","info","eq","2.73","{""undefined"":""102""}","","","","","","","","","","","","imgNWTK/FindOutNow.jpg",""
"1470.5","","","survey-number","88","2134062","0.0-15.0-0.4","male","21","China","48974","26176","neither","neither","imgNWTK/KeepItSecret.jpg","imgNWTK/FindOutNow.jpg","info","eq","2.73","{""undefined"":""98""}","","","","","","","","","","","","imgNWTK/FindOutNow.jpg",""
"1120","","","survey-number","89","2135184","0.0-15.0-0.5","male","21","China","48974","26176","neither","neither","imgNWTK/KeepItSecret.jpg","imgNWTK/FindOutNow.jpg","info","eq","2.73","{""undefined"":""98""}","","","","","","","","","","","","imgNWTK/FindOutNow.jpg",""
"782.1000000014901","","","survey-number","90","2135968","0.0-15.0-0.6","male","21","China","48974","26176","neither","neither","imgNWTK/KeepItSecret.jpg","imgNWTK/FindOutNow.jpg","info","eq","2.73","{""undefined"":""110""}","","","","","","","","","","","","imgNWTK/FindOutNow.jpg",""
"1929.1000000014901","","","survey-number","91","2137898","0.0-15.0-0.7","male","21","China","48974","26176","neither","neither","imgNWTK/KeepItSecret.jpg","imgNWTK/FindOutNow.jpg","info","eq","2.73","{""undefined"":""94""}","","","","","","","","","","","","imgNWTK/FindOutNow.jpg",""
"1106.7999999970198","","","survey-number","92","2139007","0.0-15.0-0.8","male","21","China","48974","26176","neither","neither","imgNWTK/KeepItSecret.jpg","imgNWTK/FindOutNow.jpg","info","eq","2.73","{""undefined"":""96""}","","","","","","","","","","","","imgNWTK/FindOutNow.jpg",""
"883.2000000029802","","","survey-number","93","2139891","0.0-15.0-0.9","male","21","China","48974","26176","neither","neither","imgNWTK/KeepItSecret.jpg","imgNWTK/FindOutNow.jpg","info","eq","2.73","{""undefined"":""110""}","","","","","","","","","","","","imgNWTK/FindOutNow.jpg",""
"87265.5","","","survey-number","94","2227163","0.0-16.0","male","21","China","48974","26176","neither","neither","imgNWTK/KeepItSecret.jpg","imgNWTK/FindOutNow.jpg","info","eq","2.73","{""undefined"":""104""}","","","","","","","","","","","","","imgNWTK/FindOutNow.jpg"
"4233","","","survey-number","95","2231398","0.0-17.0","male","21","China","48974","26176","neither","neither","imgNWTK/KeepItSecret.jpg","imgNWTK/FindOutNow.jpg","info","eq","2.73","{""undefined"":""96""}","","","","","","","","","","","","","imgNWTK/KeepItSecret.jpg"
"63212","<p style=""text-align:left;"">Great! We are almost at the end of the study... (Please do not close the browser window yet.)</p><p> Your final points balance is 2728, which equals to a bonus payment of $2.73. The payment can be collected from MAT721; please email amy.x.li@unsw.edu.au at least 24 hours prior to collection so that this is ready for you.</p><p style=""text-align:left;"">To view the debriefing form, please click <a href=""./imgNWTK/debrief_3205.pdf"" target=""_blank"">here</a> to download a copy.</p><p style=""text-align:left;"">Then, <b>please click the below button</b> to confirm that you have received your debrief and to complete the study. Upon clicking ""Finish!"", your SONA credit will be automatically assigned.</p>","0","html-button-response","96","2294612","0.0-18.0","male","21","China","48974","26176","neither","neither","imgNWTK/KeepItSecret.jpg","imgNWTK/FindOutNow.jpg","info","eq","2.73","","","","","","","","","","","","","",""
