"rt","stimulus","button_pressed","trial_type","trial_index","time_elapsed","internal_node_id","gender","age","language","PID","sona_id","subStim","optStim","stim1","stim2","infoCond","optimCond","bonus","responses","banditTrial","choice","cue","feedback","estimateData","leftOption","rightOption","choiceName","leftInput","rightInput","key_press","postQ","singleEst"
"8038","<p>Thank you for signing up to participate in SONA Study 465! <br> During this study, please focus on the experiment and refrain from activities such as:</p>- <b>Switching to other tabs on your browser (this will be monitored via the experiment)</br> - Using your mobile phone/cell phone</br> - Communicating with others</br></br></b><p>This way, you are helping to provide data that is useful for psychological research. We thank you for your cooperation!</p>","0","html-button-response","0","8044","0.0-0.0","female","18","Australia","623","24981","neither","neither","imgNWTK/triangle.png","imgNWTK/square.png","noninfo","eq","3.12","","","","","","","","","","","","","",""
"1155","<p>Welcome to the experiment!</p><p>You will now read some instructions about the task. Press the 'Next' button to continue. </p>","0","html-button-response","1","9202","0.0-1.0","female","18","Australia","623","24981","neither","neither","imgNWTK/triangle.png","imgNWTK/square.png","noninfo","eq","3.12","","","","","","","","","","","","","",""
"939","<p> On each trial throughout the experiment you will choose between two options, </br>a <b>Black Square </b> and <b> Black Triangle </b>, as seen below.</p><div><div style= 'float: left; width: 300px; margin: 10px 10px;'><img src= 'imgNWTK/square.png'></img></div><div style= 'float: right; width: 300px; margin: 10px 10px;'><img src= 'imgNWTK/triangle.png'></img></div></div><br/><br/><br/><br/><br/><br/><br/><br/><br/><br/><br/><p>Each option results in winning points or receiving 0 points.</br>There is a 50% chance of either winning or receiving 0 points.</p><p>You won't receive the outcome until after a <b> 20 second delay</b>.</p>","0","html-button-response","2","10145","0.0-2.0-0.0","female","18","Australia","623","24981","neither","neither","imgNWTK/triangle.png","imgNWTK/square.png","noninfo","eq","3.12","","","","","","","","","","","","","",""
"2008","<img src= 'imgNWTK/NonInfoDiagram.png'></img><p>As seen above, whether you choose the square or triangle, you will receive a coloured circle after the choice. </p> <p>This circle will be on screen for 20 seconds until you win points or receive 0 points.</p><p>The coloured circle depends on which option you chose. </br> In the above example, choosing a triangle leads to a green circle and choosing the square leads to a red circle.</p>Please note: the circles in your task will be different to the above colours.</br></br>","0","html-button-response","3","12156","0.0-2.0-1.0","female","18","Australia","623","24981","neither","neither","imgNWTK/triangle.png","imgNWTK/square.png","noninfo","eq","3.12","","","","","","","","","","","","","",""
"2809","<img src= 'cues/winTrials_noInfo.png' width = '1200'></img><p>To reiterate, 50% of the outcomes of each option will be WIN TRIALS, and the other 50% will be NO-WIN TRIALS.","0","html-button-response","4","14969","0.0-2.0-2.0","female","18","Australia","623","24981","neither","neither","imgNWTK/triangle.png","imgNWTK/square.png","noninfo","eq","3.12","","","","","","","","","","","","","",""
"1142","<p> There will be <b>four blocks</b> in the experiment.</br>You will be given a short 15 second break between each block.</p><p><b>The points and the options will remain the same between the blocks.</b></p>The blocks are there just to give you a small break.</br></br></br></br><p>The points you earn in the task are also equal to <b> actual money</b>.</br> <b>1000 points is equal to $1 AUD</b></p><p>This is the rate you will be paid at the experiment's end.","0","html-button-response","5","16114","0.0-2.0-3.0","female","18","Australia","623","24981","neither","neither","imgNWTK/triangle.png","imgNWTK/square.png","noninfo","eq","3.12","","","","","","","","","","","","","",""
"5246","","","survey-multi-choice","6","21377","0.0-2.0-4.0","female","18","Australia","623","24981","neither","neither","imgNWTK/triangle.png","imgNWTK/square.png","noninfo","eq","3.12","{""Q0"":""20 Seconds"",""Q1"":""True"",""Q2"":""Equally""}","","","","","","","","","","","","",""
"827","<p> Well done, all your answers were correct! <br> The experiment is about to start now. <br/> Click start to continue, or email your researcher <b>(amy.x.li@unsw.edu.au)</b> if you have any questions before starting.","0","html-button-response","7","22211","0.0-3.0","female","18","Australia","623","24981","neither","neither","imgNWTK/triangle.png","imgNWTK/square.png","noninfo","eq","3.12","","","","","","","","","","","","","",""
"770","","","bandit-task-exp6","8","55986","0.0-4.0-0.0","female","18","Australia","623","24981","neither","neither","imgNWTK/triangle.png","imgNWTK/square.png","noninfo","eq","3.12","","1","2","1","0","null","imgNWTK/square.png","imgNWTK/triangle.png","imgNWTK/square.png","NaN","NaN","","",""
"665","","","bandit-task-exp6","9","80416","0.0-4.0-0.1","female","18","Australia","623","24981","neither","neither","imgNWTK/triangle.png","imgNWTK/square.png","noninfo","eq","3.12","","2","2","1","0","null","imgNWTK/square.png","imgNWTK/triangle.png","imgNWTK/square.png","NaN","NaN","","",""
"1418","","","bandit-task-exp6","10","109443","0.0-4.0-0.2","female","18","Australia","623","24981","neither","neither","imgNWTK/triangle.png","imgNWTK/square.png","noninfo","eq","3.12","","3","1","2","0","null","imgNWTK/square.png","imgNWTK/triangle.png","imgNWTK/triangle.png","NaN","NaN","","",""
"691","","","bandit-task-exp6","11","131805","0.0-4.0-0.3","female","18","Australia","623","24981","neither","neither","imgNWTK/triangle.png","imgNWTK/square.png","noninfo","eq","3.12","","4","2","1","0","null","imgNWTK/square.png","imgNWTK/triangle.png","imgNWTK/square.png","NaN","NaN","","",""
"1635","","","bandit-task-exp6","12","155235","0.0-4.0-0.4","female","18","Australia","623","24981","neither","neither","imgNWTK/triangle.png","imgNWTK/square.png","noninfo","eq","3.12","","5","2","2","97","null","imgNWTK/triangle.png","imgNWTK/square.png","imgNWTK/square.png","NaN","NaN","","",""
"975","","","bandit-task-exp6","13","177944","0.0-4.0-0.5","female","18","Australia","623","24981","neither","neither","imgNWTK/triangle.png","imgNWTK/square.png","noninfo","eq","3.12","","6","1","1","106","null","imgNWTK/triangle.png","imgNWTK/square.png","imgNWTK/triangle.png","NaN","NaN","","",""
"915","","","bandit-task-exp6","14","202134","0.0-4.0-0.6","female","18","Australia","623","24981","neither","neither","imgNWTK/triangle.png","imgNWTK/square.png","noninfo","eq","3.12","","7","2","2","94","null","imgNWTK/triangle.png","imgNWTK/square.png","imgNWTK/square.png","NaN","NaN","","",""
"706","","","bandit-task-exp6","15","225546","0.0-4.0-0.7","female","18","Australia","623","24981","neither","neither","imgNWTK/triangle.png","imgNWTK/square.png","noninfo","eq","3.12","","8","2","1","0","null","imgNWTK/triangle.png","imgNWTK/square.png","imgNWTK/square.png","NaN","NaN","","",""
"563","","","bandit-task-exp6","16","249334","0.0-4.0-0.8","female","18","Australia","623","24981","neither","neither","imgNWTK/triangle.png","imgNWTK/square.png","noninfo","eq","3.12","","9","1","2","0","null","imgNWTK/square.png","imgNWTK/triangle.png","imgNWTK/triangle.png","NaN","NaN","","",""
"1020","","","bandit-task-exp6","17","272253","0.0-4.0-0.9","female","18","Australia","623","24981","neither","neither","imgNWTK/triangle.png","imgNWTK/square.png","noninfo","eq","3.12","","10","1","1","109","null","imgNWTK/triangle.png","imgNWTK/square.png","imgNWTK/triangle.png","NaN","NaN","","",""
"794","","","bandit-task-exp6","18","295937","0.0-4.0-0.10","female","18","Australia","623","24981","neither","neither","imgNWTK/triangle.png","imgNWTK/square.png","noninfo","eq","3.12","","11","1","2","0","null","imgNWTK/square.png","imgNWTK/triangle.png","imgNWTK/triangle.png","NaN","NaN","","",""
"827","","","bandit-task-exp6","19","319596","0.0-4.0-0.11","female","18","Australia","623","24981","neither","neither","imgNWTK/triangle.png","imgNWTK/square.png","noninfo","eq","3.12","","12","2","2","103","null","imgNWTK/triangle.png","imgNWTK/square.png","imgNWTK/square.png","NaN","NaN","","",""
"688","","","bandit-task-exp6","20","342473","0.0-4.0-0.12","female","18","Australia","623","24981","neither","neither","imgNWTK/triangle.png","imgNWTK/square.png","noninfo","eq","3.12","","13","2","2","104","null","imgNWTK/triangle.png","imgNWTK/square.png","imgNWTK/square.png","NaN","NaN","","",""
"783","","","bandit-task-exp6","21","365227","0.0-4.0-0.13","female","18","Australia","623","24981","neither","neither","imgNWTK/triangle.png","imgNWTK/square.png","noninfo","eq","3.12","","14","1","1","90","null","imgNWTK/triangle.png","imgNWTK/square.png","imgNWTK/triangle.png","NaN","NaN","","",""
"795","","","bandit-task-exp6","22","389013","0.0-4.0-0.14","female","18","Australia","623","24981","neither","neither","imgNWTK/triangle.png","imgNWTK/square.png","noninfo","eq","3.12","","15","1","1","94","null","imgNWTK/triangle.png","imgNWTK/square.png","imgNWTK/triangle.png","NaN","NaN","","",""
"null","<p><b> Congratulations, you have finished this block. </b> </p><p>Please take a short break before moving onto the next block.</p><p>The next block will start after a 15 second break.</p><b>Remember, the point rewards are the same between blocks","","html-keyboard-response","23","404028","0.0-5.0","female","18","Australia","623","24981","neither","neither","imgNWTK/triangle.png","imgNWTK/square.png","noninfo","eq","3.12","","","","","","","","","","","","null","",""
"1985","","","bandit-task-exp6","24","434600","0.0-6.0-0.0","female","18","Australia","623","24981","neither","neither","imgNWTK/triangle.png","imgNWTK/square.png","noninfo","eq","3.12","","16","1","1","99","null","imgNWTK/triangle.png","imgNWTK/square.png","imgNWTK/triangle.png","NaN","NaN","","",""
"842","","","bandit-task-exp6","25","457769","0.0-6.0-0.1","female","18","Australia","623","24981","neither","neither","imgNWTK/triangle.png","imgNWTK/square.png","noninfo","eq","3.12","","17","1","2","0","null","imgNWTK/triangle.png","imgNWTK/square.png","imgNWTK/triangle.png","NaN","NaN","","",""
"1287","","","bandit-task-exp6","26","481335","0.0-6.0-0.2","female","18","Australia","623","24981","neither","neither","imgNWTK/triangle.png","imgNWTK/square.png","noninfo","eq","3.12","","18","2","2","96","null","imgNWTK/triangle.png","imgNWTK/square.png","imgNWTK/square.png","NaN","NaN","","",""
"728","","","bandit-task-exp6","27","504633","0.0-6.0-0.3","female","18","Australia","623","24981","neither","neither","imgNWTK/triangle.png","imgNWTK/square.png","noninfo","eq","3.12","","19","1","1","103","null","imgNWTK/triangle.png","imgNWTK/square.png","imgNWTK/triangle.png","NaN","NaN","","",""
"738","","","bandit-task-exp6","28","527540","0.0-6.0-0.4","female","18","Australia","623","24981","neither","neither","imgNWTK/triangle.png","imgNWTK/square.png","noninfo","eq","3.12","","20","1","1","102","null","imgNWTK/triangle.png","imgNWTK/square.png","imgNWTK/triangle.png","NaN","NaN","","",""
"587","","","bandit-task-exp6","29","552087","0.0-6.0-0.5","female","18","Australia","623","24981","neither","neither","imgNWTK/triangle.png","imgNWTK/square.png","noninfo","eq","3.12","","21","2","2","98","null","imgNWTK/square.png","imgNWTK/triangle.png","imgNWTK/square.png","NaN","NaN","","",""
"715","","","bandit-task-exp6","30","576159","0.0-6.0-0.6","female","18","Australia","623","24981","neither","neither","imgNWTK/triangle.png","imgNWTK/square.png","noninfo","eq","3.12","","22","2","1","0","null","imgNWTK/square.png","imgNWTK/triangle.png","imgNWTK/square.png","NaN","NaN","","",""
"712","","","bandit-task-exp6","31","600004","0.0-6.0-0.7","female","18","Australia","623","24981","neither","neither","imgNWTK/triangle.png","imgNWTK/square.png","noninfo","eq","3.12","","23","1","2","0","null","imgNWTK/triangle.png","imgNWTK/square.png","imgNWTK/triangle.png","NaN","NaN","","",""
"644","","","bandit-task-exp6","32","622613","0.0-6.0-0.8","female","18","Australia","623","24981","neither","neither","imgNWTK/triangle.png","imgNWTK/square.png","noninfo","eq","3.12","","24","2","1","0","null","imgNWTK/triangle.png","imgNWTK/square.png","imgNWTK/square.png","NaN","NaN","","",""
"581","","","bandit-task-exp6","33","645246","0.0-6.0-0.9","female","18","Australia","623","24981","neither","neither","imgNWTK/triangle.png","imgNWTK/square.png","noninfo","eq","3.12","","25","2","1","0","null","imgNWTK/triangle.png","imgNWTK/square.png","imgNWTK/square.png","NaN","NaN","","",""
"1669","","","bandit-task-exp6","34","670512","0.0-6.0-0.10","female","18","Australia","623","24981","neither","neither","imgNWTK/triangle.png","imgNWTK/square.png","noninfo","eq","3.12","","26","1","2","0","null","imgNWTK/square.png","imgNWTK/triangle.png","imgNWTK/triangle.png","NaN","NaN","","",""
"545","","","bandit-task-exp6","35","692940","0.0-6.0-0.11","female","18","Australia","623","24981","neither","neither","imgNWTK/triangle.png","imgNWTK/square.png","noninfo","eq","3.12","","27","1","2","0","null","imgNWTK/triangle.png","imgNWTK/square.png","imgNWTK/triangle.png","NaN","NaN","","",""
"680","","","bandit-task-exp6","36","716940","0.0-6.0-0.12","female","18","Australia","623","24981","neither","neither","imgNWTK/triangle.png","imgNWTK/square.png","noninfo","eq","3.12","","28","1","2","0","null","imgNWTK/triangle.png","imgNWTK/square.png","imgNWTK/triangle.png","NaN","NaN","","",""
"1549","","","bandit-task-exp6","37","740243","0.0-6.0-0.13","female","18","Australia","623","24981","neither","neither","imgNWTK/triangle.png","imgNWTK/square.png","noninfo","eq","3.12","","29","1","2","0","null","imgNWTK/triangle.png","imgNWTK/square.png","imgNWTK/triangle.png","NaN","NaN","","",""
"1129","","","bandit-task-exp6","38","763521","0.0-6.0-0.14","female","18","Australia","623","24981","neither","neither","imgNWTK/triangle.png","imgNWTK/square.png","noninfo","eq","3.12","","30","1","2","0","null","imgNWTK/square.png","imgNWTK/triangle.png","imgNWTK/triangle.png","NaN","NaN","","",""
"null","<p><b> Congratulations, you have finished this block. </b> </p><p>Please take a short break before moving onto the next block.</p><p>The next block will start after a 15 second break.</p><b>Remember, the point rewards are the same between blocks","","html-keyboard-response","39","778526","0.0-7.0","female","18","Australia","623","24981","neither","neither","imgNWTK/triangle.png","imgNWTK/square.png","noninfo","eq","3.12","","","","","","","","","","","","null","",""
"1582","","","bandit-task-exp6","40","801808","0.0-8.0-0.0","female","18","Australia","623","24981","neither","neither","imgNWTK/triangle.png","imgNWTK/square.png","noninfo","eq","3.12","","31","1","1","92","null","imgNWTK/triangle.png","imgNWTK/square.png","imgNWTK/triangle.png","NaN","NaN","","",""
"1179","","","bandit-task-exp6","41","824666","0.0-8.0-0.1","female","18","Australia","623","24981","neither","neither","imgNWTK/triangle.png","imgNWTK/square.png","noninfo","eq","3.12","","32","2","2","94","null","imgNWTK/triangle.png","imgNWTK/square.png","imgNWTK/square.png","NaN","NaN","","",""
"775","","","bandit-task-exp6","42","847728","0.0-8.0-0.2","female","18","Australia","623","24981","neither","neither","imgNWTK/triangle.png","imgNWTK/square.png","noninfo","eq","3.12","","33","1","1","98","null","imgNWTK/triangle.png","imgNWTK/square.png","imgNWTK/triangle.png","NaN","NaN","","",""
"1189","","","bandit-task-exp6","43","871255","0.0-8.0-0.3","female","18","Australia","623","24981","neither","neither","imgNWTK/triangle.png","imgNWTK/square.png","noninfo","eq","3.12","","34","1","2","0","null","imgNWTK/square.png","imgNWTK/triangle.png","imgNWTK/triangle.png","NaN","NaN","","",""
"742","","","bandit-task-exp6","44","893462","0.0-8.0-0.4","female","18","Australia","623","24981","neither","neither","imgNWTK/triangle.png","imgNWTK/square.png","noninfo","eq","3.12","","35","2","2","107","null","imgNWTK/triangle.png","imgNWTK/square.png","imgNWTK/square.png","NaN","NaN","","",""
"742","","","bandit-task-exp6","45","917766","0.0-8.0-0.5","female","18","Australia","623","24981","neither","neither","imgNWTK/triangle.png","imgNWTK/square.png","noninfo","eq","3.12","","36","2","2","107","null","imgNWTK/square.png","imgNWTK/triangle.png","imgNWTK/square.png","NaN","NaN","","",""
"703","","","bandit-task-exp6","46","940633","0.0-8.0-0.6","female","18","Australia","623","24981","neither","neither","imgNWTK/triangle.png","imgNWTK/square.png","noninfo","eq","3.12","","37","2","2","103","null","imgNWTK/square.png","imgNWTK/triangle.png","imgNWTK/square.png","NaN","NaN","","",""
"771","","","bandit-task-exp6","47","963384","0.0-8.0-0.7","female","18","Australia","623","24981","neither","neither","imgNWTK/triangle.png","imgNWTK/square.png","noninfo","eq","3.12","","38","1","1","108","null","imgNWTK/square.png","imgNWTK/triangle.png","imgNWTK/triangle.png","NaN","NaN","","",""
"723","","","bandit-task-exp6","48","986138","0.0-8.0-0.8","female","18","Australia","623","24981","neither","neither","imgNWTK/triangle.png","imgNWTK/square.png","noninfo","eq","3.12","","39","1","1","105","null","imgNWTK/triangle.png","imgNWTK/square.png","imgNWTK/triangle.png","NaN","NaN","","",""
"1930","","","bandit-task-exp6","49","1009957","0.0-8.0-0.9","female","18","Australia","623","24981","neither","neither","imgNWTK/triangle.png","imgNWTK/square.png","noninfo","eq","3.12","","40","1","2","0","null","imgNWTK/square.png","imgNWTK/triangle.png","imgNWTK/triangle.png","NaN","NaN","","",""
"694","","","bandit-task-exp6","50","1032584","0.0-8.0-0.10","female","18","Australia","623","24981","neither","neither","imgNWTK/triangle.png","imgNWTK/square.png","noninfo","eq","3.12","","41","2","1","0","null","imgNWTK/square.png","imgNWTK/triangle.png","imgNWTK/square.png","NaN","NaN","","",""
"1452","","","bandit-task-exp6","51","1057500","0.0-8.0-0.11","female","18","Australia","623","24981","neither","neither","imgNWTK/triangle.png","imgNWTK/square.png","noninfo","eq","3.12","","42","1","2","0","null","imgNWTK/square.png","imgNWTK/triangle.png","imgNWTK/triangle.png","NaN","NaN","","",""
"1397","","","bandit-task-exp6","52","1080798","0.0-8.0-0.12","female","18","Australia","623","24981","neither","neither","imgNWTK/triangle.png","imgNWTK/square.png","noninfo","eq","3.12","","43","2","2","101","null","imgNWTK/triangle.png","imgNWTK/square.png","imgNWTK/square.png","NaN","NaN","","",""
"1250","","","bandit-task-exp6","53","1111460","0.0-8.0-0.13","female","18","Australia","623","24981","neither","neither","imgNWTK/triangle.png","imgNWTK/square.png","noninfo","eq","3.12","","44","2","1","0","null","imgNWTK/square.png","imgNWTK/triangle.png","imgNWTK/square.png","NaN","NaN","","",""
"641","","","bandit-task-exp6","54","1133967","0.0-8.0-0.14","female","18","Australia","623","24981","neither","neither","imgNWTK/triangle.png","imgNWTK/square.png","noninfo","eq","3.12","","45","1","1","96","null","imgNWTK/square.png","imgNWTK/triangle.png","imgNWTK/triangle.png","NaN","NaN","","",""
"null","<p><b> Congratulations, you have finished this block. </b> </p><p>Please take a short break before moving onto the next block.</p><p>The next block will start after a 15 second break.</p><b>Remember, the point rewards are the same between blocks","","html-keyboard-response","55","1148971","0.0-9.0","female","18","Australia","623","24981","neither","neither","imgNWTK/triangle.png","imgNWTK/square.png","noninfo","eq","3.12","","","","","","","","","","","","null","",""
"21220","","","bandit-task-exp6","56","1192368","0.0-10.0-0.0","female","18","Australia","623","24981","neither","neither","imgNWTK/triangle.png","imgNWTK/square.png","noninfo","eq","3.12","","46","2","2","101","null","imgNWTK/square.png","imgNWTK/triangle.png","imgNWTK/square.png","103","96","","",""
"8638","","","bandit-task-exp6","57","1225647","0.0-10.0-0.1","female","18","Australia","623","24981","neither","neither","imgNWTK/triangle.png","imgNWTK/square.png","noninfo","eq","3.12","","47","2","2","109","null","imgNWTK/triangle.png","imgNWTK/square.png","imgNWTK/square.png","96","103","","",""
"9427","","","bandit-task-exp6","58","1257164","0.0-10.0-0.2","female","18","Australia","623","24981","neither","neither","imgNWTK/triangle.png","imgNWTK/square.png","noninfo","eq","3.12","","48","1","2","0","null","imgNWTK/square.png","imgNWTK/triangle.png","imgNWTK/triangle.png","103","93","","",""
"7261","","","bandit-task-exp6","59","1287453","0.0-10.0-0.3","female","18","Australia","623","24981","neither","neither","imgNWTK/triangle.png","imgNWTK/square.png","noninfo","eq","3.12","","49","2","1","0","null","imgNWTK/triangle.png","imgNWTK/square.png","imgNWTK/square.png","96","103","","",""
"8933","","","bandit-task-exp6","60","1321372","0.0-10.0-0.4","female","18","Australia","623","24981","neither","neither","imgNWTK/triangle.png","imgNWTK/square.png","noninfo","eq","3.12","","50","2","2","101","null","imgNWTK/square.png","imgNWTK/triangle.png","imgNWTK/square.png","103","96","","",""
"6293","","","bandit-task-exp6","61","1351909","0.0-10.0-0.5","female","18","Australia","623","24981","neither","neither","imgNWTK/triangle.png","imgNWTK/square.png","noninfo","eq","3.12","","51","2","2","100","null","imgNWTK/square.png","imgNWTK/triangle.png","imgNWTK/square.png","101","96","","",""
"12039","","","bandit-task-exp6","62","1387068","0.0-10.0-0.6","female","18","Australia","623","24981","neither","neither","imgNWTK/triangle.png","imgNWTK/square.png","noninfo","eq","3.12","","52","1","1","105","null","imgNWTK/square.png","imgNWTK/triangle.png","imgNWTK/triangle.png","97","132","","",""
"6180","","","bandit-task-exp6","63","1415158","0.0-10.0-0.7","female","18","Australia","623","24981","neither","neither","imgNWTK/triangle.png","imgNWTK/square.png","noninfo","eq","3.12","","53","2","2","90","null","imgNWTK/square.png","imgNWTK/triangle.png","imgNWTK/square.png","103","97","","",""
"13172","","","bandit-task-exp6","64","1451623","0.0-10.0-0.8","female","18","Australia","623","24981","neither","neither","imgNWTK/triangle.png","imgNWTK/square.png","noninfo","eq","3.12","","54","1","1","100","null","imgNWTK/triangle.png","imgNWTK/square.png","imgNWTK/triangle.png","127","95","","",""
"8401","","","bandit-task-exp6","65","1481958","0.0-10.0-0.9","female","18","Australia","623","24981","neither","neither","imgNWTK/triangle.png","imgNWTK/square.png","noninfo","eq","3.12","","55","2","2","103","null","imgNWTK/square.png","imgNWTK/triangle.png","imgNWTK/square.png","110","95","","",""
"8914","","","bandit-task-exp6","66","1514468","0.0-10.0-0.10","female","18","Australia","623","24981","neither","neither","imgNWTK/triangle.png","imgNWTK/square.png","noninfo","eq","3.12","","56","1","2","0","null","imgNWTK/square.png","imgNWTK/triangle.png","imgNWTK/triangle.png","103","91","","",""
"6513","","","bandit-task-exp6","67","1543695","0.0-10.0-0.11","female","18","Australia","623","24981","neither","neither","imgNWTK/triangle.png","imgNWTK/square.png","noninfo","eq","3.12","","57","2","1","0","null","imgNWTK/square.png","imgNWTK/triangle.png","imgNWTK/square.png","105","94","","",""
"5214","","","bandit-task-exp6","68","1571756","0.0-10.0-0.12","female","18","Australia","623","24981","neither","neither","imgNWTK/triangle.png","imgNWTK/square.png","noninfo","eq","3.12","","58","2","1","0","null","imgNWTK/square.png","imgNWTK/triangle.png","imgNWTK/square.png","93","98","","",""
"6594","","","bandit-task-exp6","69","1600742","0.0-10.0-0.13","female","18","Australia","623","24981","neither","neither","imgNWTK/triangle.png","imgNWTK/square.png","noninfo","eq","3.12","","59","1","2","0","null","imgNWTK/triangle.png","imgNWTK/square.png","imgNWTK/triangle.png","129","95","","",""
"9487","","","bandit-task-exp6","70","1636719","0.0-10.0-0.14","female","18","Australia","623","24981","neither","neither","imgNWTK/triangle.png","imgNWTK/square.png","noninfo","eq","3.12","","60","1","2","0","null","imgNWTK/square.png","imgNWTK/triangle.png","imgNWTK/triangle.png","239","96","","",""
"6329","<p> Congratulations, you have finished the main part of the experiment. </p><p>Before you finish, we have a few short questions about the options and outcomes you saw in the task.</p>","0","html-button-response","71","1643053","0.0-11.0","female","18","Australia","623","24981","neither","neither","imgNWTK/triangle.png","imgNWTK/square.png","noninfo","eq","3.12","","","","","","","","","","","","","",""
"5315","<p><b>Now, imagine that you clicked on the below button for another 10 trials (this includes <i> BOTH WIN and NO-WIN trials</i>).</p> <img src= 'imgNWTK/triangle.png'></img></br></br> <p><b>Please type the reward (number of points) you would expect to receive on every trial.</br> Click start to begin.</p>","0","html-button-response","72","1648371","0.0-12.0","female","18","Australia","623","24981","neither","neither","imgNWTK/triangle.png","imgNWTK/square.png","noninfo","eq","3.12","","","","","","","","","","","","","",""
"2821.400000035763","","","survey-number","73","1651203","0.0-13.0-0.0","female","18","Australia","623","24981","neither","neither","imgNWTK/triangle.png","imgNWTK/square.png","noninfo","eq","3.12","{""undefined"":""96""}","","","","","","","","","","","","imgNWTK/triangle.png",""
"588.5","","","survey-number","74","1651795","0.0-13.0-0.1","female","18","Australia","623","24981","neither","neither","imgNWTK/triangle.png","imgNWTK/square.png","noninfo","eq","3.12","{""undefined"":""00""}","","","","","","","","","","","","imgNWTK/triangle.png",""
"1405.1000000238419","","","survey-number","75","1653204","0.0-13.0-0.2","female","18","Australia","623","24981","neither","neither","imgNWTK/triangle.png","imgNWTK/square.png","noninfo","eq","3.12","{""undefined"":""0""}","","","","","","","","","","","","imgNWTK/triangle.png",""
"421.9000000357628","","","survey-number","76","1653631","0.0-13.0-0.3","female","18","Australia","623","24981","neither","neither","imgNWTK/triangle.png","imgNWTK/square.png","noninfo","eq","3.12","{""undefined"":""0""}","","","","","","","","","","","","imgNWTK/triangle.png",""
"1918.300000011921","","","survey-number","77","1655554","0.0-13.0-0.4","female","18","Australia","623","24981","neither","neither","imgNWTK/triangle.png","imgNWTK/square.png","noninfo","eq","3.12","{""undefined"":""94""}","","","","","","","","","","","","imgNWTK/triangle.png",""
"2412.800000011921","","","survey-number","78","1657971","0.0-13.0-0.5","female","18","Australia","623","24981","neither","neither","imgNWTK/triangle.png","imgNWTK/square.png","noninfo","eq","3.12","{""undefined"":""103""}","","","","","","","","","","","","imgNWTK/triangle.png",""
"1654.0999999642372","","","survey-number","79","1659630","0.0-13.0-0.6","female","18","Australia","623","24981","neither","neither","imgNWTK/triangle.png","imgNWTK/square.png","noninfo","eq","3.12","{""undefined"":""10""}","","","","","","","","","","","","imgNWTK/triangle.png",""
"2072.699999988079","","","survey-number","80","1661707","0.0-13.0-0.7","female","18","Australia","623","24981","neither","neither","imgNWTK/triangle.png","imgNWTK/square.png","noninfo","eq","3.12","{""undefined"":""101""}","","","","","","","","","","","","imgNWTK/triangle.png",""
"1016.6000000238419","","","survey-number","81","1662727","0.0-13.0-0.8","female","18","Australia","623","24981","neither","neither","imgNWTK/triangle.png","imgNWTK/square.png","noninfo","eq","3.12","{""undefined"":""0""}","","","","","","","","","","","","imgNWTK/triangle.png",""
"1747.9000000357628","","","survey-number","82","1664478","0.0-13.0-0.9","female","18","Australia","623","24981","neither","neither","imgNWTK/triangle.png","imgNWTK/square.png","noninfo","eq","3.12","{""undefined"":""99""}","","","","","","","","","","","","imgNWTK/triangle.png",""
"1207","<p><b>Imagine that you clicked on the below button for another 10 trials (this includes <i> both WIN and NO-WIN trials</i>).</p> <img src= 'imgNWTK/square.png'></img></br></br> <p><b>Please type the reward (number of points) you would expect to receive on every trial.</br> Click start to begin.</p>","0","html-button-response","83","1665689","0.0-14.0","female","18","Australia","623","24981","neither","neither","imgNWTK/triangle.png","imgNWTK/square.png","noninfo","eq","3.12","","","","","","","","","","","","","",""
"839","","","survey-number","84","1666535","0.0-15.0-0.0","female","18","Australia","623","24981","neither","neither","imgNWTK/triangle.png","imgNWTK/square.png","noninfo","eq","3.12","{""undefined"":""0""}","","","","","","","","","","","","imgNWTK/square.png",""
"477.60000002384186","","","survey-number","85","1667017","0.0-15.0-0.1","female","18","Australia","623","24981","neither","neither","imgNWTK/triangle.png","imgNWTK/square.png","noninfo","eq","3.12","{""undefined"":""0""}","","","","","","","","","","","","imgNWTK/square.png",""
"301.69999998807907","","","survey-number","86","1667322","0.0-15.0-0.2","female","18","Australia","623","24981","neither","neither","imgNWTK/triangle.png","imgNWTK/square.png","noninfo","eq","3.12","{""undefined"":""0""}","","","","","","","","","","","","imgNWTK/square.png",""
"270","","","survey-number","87","1667597","0.0-15.0-0.3","female","18","Australia","623","24981","neither","neither","imgNWTK/triangle.png","imgNWTK/square.png","noninfo","eq","3.12","{""undefined"":""0""}","","","","","","","","","","","","imgNWTK/square.png",""
"1238.5999999642372","","","survey-number","88","1668840","0.0-15.0-0.4","female","18","Australia","623","24981","neither","neither","imgNWTK/triangle.png","imgNWTK/square.png","noninfo","eq","3.12","{""undefined"":""9""}","","","","","","","","","","","","imgNWTK/square.png",""
"725.3000000119209","","","survey-number","89","1669569","0.0-15.0-0.5","female","18","Australia","623","24981","neither","neither","imgNWTK/triangle.png","imgNWTK/square.png","noninfo","eq","3.12","{""undefined"":""0""}","","","","","","","","","","","","imgNWTK/square.png",""
"495.10000002384186","","","survey-number","90","1670069","0.0-15.0-0.6","female","18","Australia","623","24981","neither","neither","imgNWTK/triangle.png","imgNWTK/square.png","noninfo","eq","3.12","{""undefined"":""0""}","","","","","","","","","","","","imgNWTK/square.png",""
"298.39999997615814","","","survey-number","91","1670371","0.0-15.0-0.7","female","18","Australia","623","24981","neither","neither","imgNWTK/triangle.png","imgNWTK/square.png","noninfo","eq","3.12","{""undefined"":""0""}","","","","","","","","","","","","imgNWTK/square.png",""
"1434","","","survey-number","92","1671810","0.0-15.0-0.8","female","18","Australia","623","24981","neither","neither","imgNWTK/triangle.png","imgNWTK/square.png","noninfo","eq","3.12","{""undefined"":""93""}","","","","","","","","","","","","imgNWTK/square.png",""
"494.69999998807907","","","survey-number","93","1672309","0.0-15.0-0.9","female","18","Australia","623","24981","neither","neither","imgNWTK/triangle.png","imgNWTK/square.png","noninfo","eq","3.12","{""undefined"":""0""}","","","","","","","","","","","","imgNWTK/square.png",""
"5393.5","","","survey-number","94","1677725","0.0-16.0","female","18","Australia","623","24981","neither","neither","imgNWTK/triangle.png","imgNWTK/square.png","noninfo","eq","3.12","{""undefined"":""25""}","","","","","","","","","","","","","imgNWTK/square.png"
"7691.300000011921","","","survey-number","95","1685422","0.0-17.0","female","18","Australia","623","24981","neither","neither","imgNWTK/triangle.png","imgNWTK/square.png","noninfo","eq","3.12","{""undefined"":""75""}","","","","","","","","","","","","","imgNWTK/triangle.png"
"6176","<p style=""text-align:left;"">Great! We are almost at the end of the study... (Please do not close the browser window yet.)</p><p> Your final points balance is 3115, which equals to a bonus payment of $3.12. Please collect your payment from Mathews Building Room 721 (Mon-Fri 9am-5pm); please email amy.x.li@unsw.edu.au at least 24 hours prior to collection so that this is ready for you.</p><p style=""text-align:left;"">To view the debriefing form, please click <a href=""./imgNWTK/debrief_3205.pdf"" target=""_blank"">here</a> to download a copy.</p><p style=""text-align:left;"">Then, <b>please click the below button</b> to confirm that you have received your debrief and to complete the study. Upon clicking ""Finish!"", your SONA credit will be automatically assigned.</p>","0","html-button-response","96","1691601","0.0-18.0","female","18","Australia","623","24981","neither","neither","imgNWTK/triangle.png","imgNWTK/square.png","noninfo","eq","3.12","","","","","","","","","","","","","",""
