"rt","stimulus","button_pressed","trial_type","trial_index","time_elapsed","internal_node_id","gender","age","language","PID","sona_id","subStim","optStim","stim1","stim2","infoCond","optimCond","bonus","responses","banditTrial","choice","cue","feedback","estimateData","leftOption","rightOption","choiceName","leftInput","rightInput","key_press","postQ","singleEst"
"18218","<p>Thank you for signing up to participate in SONA Study 465! <br> During this study, please focus on the experiment and refrain from activities such as:</p>- <b>Switching to other tabs on your browser (this will be monitored via the experiment)</br> - Using your mobile phone/cell phone</br> - Communicating with others</br></br></b><p>This way, you are helping to provide data that is useful for psychological research. We thank you for your cooperation!</p>","0","html-button-response","0","18219","0.0-0.0","male","36","australia","93640","26484","neither","neither","imgNWTK/KeepItSecret.jpg","imgNWTK/FindOutNow.jpg","info","eq","3.15","","","","","","","","","","","","","",""
"1886","<p>Welcome to the experiment!</p><p>You will now read some instructions about the task. Press the 'Next' button to continue. </p>","0","html-button-response","1","20106","0.0-1.0","male","36","australia","93640","26484","neither","neither","imgNWTK/KeepItSecret.jpg","imgNWTK/FindOutNow.jpg","info","eq","3.15","","","","","","","","","","","","","",""
"16643","<p> On each trial throughout the experiment you will choose between the options </br><b> Find Out Now </b> and <b> Keep It Secret </b>, as shown below.</p><div><div style= 'float: left; width: 300px; margin: 10px 10px;'><img src= 'imgNWTK/KeepItSecret.jpg'></img></div><div style= 'float: right; width: 300px; margin: 10px 10px;'><img src= 'imgNWTK/FindOutNow.jpg'></img></div></div><br/><br/><br/><br/><br/><br/><br/><br/><br/><br/><br/><p>Each option results in winning points or receiving 0 points.</br>There is a 50% chance of either winning or receiving 0 points.</p><p>You won't receive the outcome until after a <b> 20 second delay</b>. However, selecting the Find Out Now option will allow you to find out about the outcome early, whereas the Keep It Secret option will not. </p>","0","html-button-response","2","36750","0.0-2.0-0.0","male","36","australia","93640","26484","neither","neither","imgNWTK/KeepItSecret.jpg","imgNWTK/FindOutNow.jpg","info","eq","3.15","","","","","","","","","","","","","",""
"16843","<img src= 'cues/Experiment6.png'></img><p>As seen above, when choosing the <b>'Find Out Now'</b> option, you will receive either a happy face or sad face.</br>The happy face means you will win points after the delay, whereas the sad face means you will receive 0 points.</br></p><p> When choosing the <b> 'Keep it Secret' </b> option you will receive a confused face.</br> This face appears regardless of whether you are going to win points or not. </p>In short, choosing 'Find Out Now' allows you to find out the outcome before you experience it (after the delay).</br></br>","0","html-button-response","3","53594","0.0-2.0-1.0","male","36","australia","93640","26484","neither","neither","imgNWTK/KeepItSecret.jpg","imgNWTK/FindOutNow.jpg","info","eq","3.15","","","","","","","","","","","","","",""
"9139","<img src= 'cues/winTrials_info.png' width = '1200'></img><p>To reiterate, 50% of the outcomes of each option will be WIN TRIALS, and the other 50% will be NO-WIN TRIALS.","0","html-button-response","4","62734","0.0-2.0-2.0","male","36","australia","93640","26484","neither","neither","imgNWTK/KeepItSecret.jpg","imgNWTK/FindOutNow.jpg","info","eq","3.15","","","","","","","","","","","","","",""
"10454","<p> There will be <b>four blocks</b> in the experiment.</br>You will be given a short 15 second break between each block.</p><p><b>The points and the options will remain the same between the blocks.</b></p>The blocks are there just to give you a small break.</br></br><p>The points you earn in the task are also equal to <b> actual money</b>.</br> <b>1000 points is equal to $1.</b></p><p>This is the rate you will be paid at the experiment's end.","0","html-button-response","5","73189","0.0-2.0-3.0","male","36","australia","93640","26484","neither","neither","imgNWTK/KeepItSecret.jpg","imgNWTK/FindOutNow.jpg","info","eq","3.15","","","","","","","","","","","","","",""
"27606","","","survey-multi-choice","6","100797","0.0-2.0-4.0","male","36","australia","93640","26484","neither","neither","imgNWTK/KeepItSecret.jpg","imgNWTK/FindOutNow.jpg","info","eq","3.15","{""Q0"":""40 Seconds"",""Q1"":""True"",""Q2"":""Equally"",""Q3"":""True""}","","","","","","","","","","","","",""
"4431","Unfortunately, at least one of your answers was incorrect. Let's read the instructions again.<p> ","0","html-button-response","7","105229","0.0-2.0-5.0-0.0","male","36","australia","93640","26484","neither","neither","imgNWTK/KeepItSecret.jpg","imgNWTK/FindOutNow.jpg","info","eq","3.15","","","","","","","","","","","","","",""
"11367","<p> On each trial throughout the experiment you will choose between the options </br><b> Find Out Now </b> and <b> Keep It Secret </b>, as shown below.</p><div><div style= 'float: left; width: 300px; margin: 10px 10px;'><img src= 'imgNWTK/KeepItSecret.jpg'></img></div><div style= 'float: right; width: 300px; margin: 10px 10px;'><img src= 'imgNWTK/FindOutNow.jpg'></img></div></div><br/><br/><br/><br/><br/><br/><br/><br/><br/><br/><br/><p>Each option results in winning points or receiving 0 points.</br>There is a 50% chance of either winning or receiving 0 points.</p><p>You won't receive the outcome until after a <b> 20 second delay</b>. However, selecting the Find Out Now option will allow you to find out about the outcome early, whereas the Keep It Secret option will not. </p>","0","html-button-response","8","116597","0.0-2.1-0.1","male","36","australia","93640","26484","neither","neither","imgNWTK/KeepItSecret.jpg","imgNWTK/FindOutNow.jpg","info","eq","3.15","","","","","","","","","","","","","",""
"1183","<img src= 'cues/Experiment6.png'></img><p>As seen above, when choosing the <b>'Find Out Now'</b> option, you will receive either a happy face or sad face.</br>The happy face means you will win points after the delay, whereas the sad face means you will receive 0 points.</br></p><p> When choosing the <b> 'Keep it Secret' </b> option you will receive a confused face.</br> This face appears regardless of whether you are going to win points or not. </p>In short, choosing 'Find Out Now' allows you to find out the outcome before you experience it (after the delay).</br></br>","0","html-button-response","9","117780","0.0-2.1-1.1","male","36","australia","93640","26484","neither","neither","imgNWTK/KeepItSecret.jpg","imgNWTK/FindOutNow.jpg","info","eq","3.15","","","","","","","","","","","","","",""
"1032","<img src= 'cues/winTrials_info.png' width = '1200'></img><p>To reiterate, 50% of the outcomes of each option will be WIN TRIALS, and the other 50% will be NO-WIN TRIALS.","0","html-button-response","10","118813","0.0-2.1-2.1","male","36","australia","93640","26484","neither","neither","imgNWTK/KeepItSecret.jpg","imgNWTK/FindOutNow.jpg","info","eq","3.15","","","","","","","","","","","","","",""
"1551","<p> There will be <b>four blocks</b> in the experiment.</br>You will be given a short 15 second break between each block.</p><p><b>The points and the options will remain the same between the blocks.</b></p>The blocks are there just to give you a small break.</br></br><p>The points you earn in the task are also equal to <b> actual money</b>.</br> <b>1000 points is equal to $1.</b></p><p>This is the rate you will be paid at the experiment's end.","0","html-button-response","11","120365","0.0-2.1-3.1","male","36","australia","93640","26484","neither","neither","imgNWTK/KeepItSecret.jpg","imgNWTK/FindOutNow.jpg","info","eq","3.15","","","","","","","","","","","","","",""
"7170","","","survey-multi-choice","12","127539","0.0-2.1-4.1","male","36","australia","93640","26484","neither","neither","imgNWTK/KeepItSecret.jpg","imgNWTK/FindOutNow.jpg","info","eq","3.15","{""Q0"":""20 Seconds"",""Q1"":""True"",""Q2"":""Equally"",""Q3"":""True""}","","","","","","","","","","","","",""
"1480","<p> Well done, all your answers were correct! <br> The experiment is about to start now. <br/> Click start to continue, or email your researcher <b>(amy.x.li@unsw.edu.au)</b> if you have any questions before starting.","0","html-button-response","13","129019","0.0-3.0","male","36","australia","93640","26484","neither","neither","imgNWTK/KeepItSecret.jpg","imgNWTK/FindOutNow.jpg","info","eq","3.15","","","","","","","","","","","","","",""
"5007","","","bandit-task-exp6","14","156891","0.0-4.0-0.0","male","36","australia","93640","26484","neither","neither","imgNWTK/KeepItSecret.jpg","imgNWTK/FindOutNow.jpg","info","eq","3.15","","1","2","2","97","null","imgNWTK/KeepItSecret.jpg","imgNWTK/FindOutNow.jpg","imgNWTK/FindOutNow.jpg","NaN","NaN","","",""
"28741","","","bandit-task-exp6","15","208891","0.0-4.0-0.1","male","36","australia","93640","26484","neither","neither","imgNWTK/KeepItSecret.jpg","imgNWTK/FindOutNow.jpg","info","eq","3.15","","2","1","1","95","null","imgNWTK/KeepItSecret.jpg","imgNWTK/FindOutNow.jpg","imgNWTK/KeepItSecret.jpg","NaN","NaN","","",""
"1735","","","bandit-task-exp6","16","232380","0.0-4.0-0.2","male","36","australia","93640","26484","neither","neither","imgNWTK/KeepItSecret.jpg","imgNWTK/FindOutNow.jpg","info","eq","3.15","","3","2","2","91","null","imgNWTK/KeepItSecret.jpg","imgNWTK/FindOutNow.jpg","imgNWTK/FindOutNow.jpg","NaN","NaN","","",""
"2492","","","bandit-task-exp6","17","257348","0.0-4.0-0.3","male","36","australia","93640","26484","neither","neither","imgNWTK/KeepItSecret.jpg","imgNWTK/FindOutNow.jpg","info","eq","3.15","","4","1","2","0","null","imgNWTK/FindOutNow.jpg","imgNWTK/KeepItSecret.jpg","imgNWTK/KeepItSecret.jpg","NaN","NaN","","",""
"1117","","","bandit-task-exp6","18","280217","0.0-4.0-0.4","male","36","australia","93640","26484","neither","neither","imgNWTK/KeepItSecret.jpg","imgNWTK/FindOutNow.jpg","info","eq","3.15","","5","1","1","98","null","imgNWTK/KeepItSecret.jpg","imgNWTK/FindOutNow.jpg","imgNWTK/KeepItSecret.jpg","NaN","NaN","","",""
"1443","","","bandit-task-exp6","19","303861","0.0-4.0-0.5","male","36","australia","93640","26484","neither","neither","imgNWTK/KeepItSecret.jpg","imgNWTK/FindOutNow.jpg","info","eq","3.15","","6","2","1","0","null","imgNWTK/KeepItSecret.jpg","imgNWTK/FindOutNow.jpg","imgNWTK/FindOutNow.jpg","NaN","NaN","","",""
"4300","","","bandit-task-exp6","20","329784","0.0-4.0-0.6","male","36","australia","93640","26484","neither","neither","imgNWTK/KeepItSecret.jpg","imgNWTK/FindOutNow.jpg","info","eq","3.15","","7","1","2","0","null","imgNWTK/FindOutNow.jpg","imgNWTK/KeepItSecret.jpg","imgNWTK/KeepItSecret.jpg","NaN","NaN","","",""
"769","","","bandit-task-exp6","21","352442","0.0-4.0-0.7","male","36","australia","93640","26484","neither","neither","imgNWTK/KeepItSecret.jpg","imgNWTK/FindOutNow.jpg","info","eq","3.15","","8","2","1","0","null","imgNWTK/FindOutNow.jpg","imgNWTK/KeepItSecret.jpg","imgNWTK/FindOutNow.jpg","NaN","NaN","","",""
"917","","","bandit-task-exp6","22","375180","0.0-4.0-0.8","male","36","australia","93640","26484","neither","neither","imgNWTK/KeepItSecret.jpg","imgNWTK/FindOutNow.jpg","info","eq","3.15","","9","2","2","90","null","imgNWTK/FindOutNow.jpg","imgNWTK/KeepItSecret.jpg","imgNWTK/FindOutNow.jpg","NaN","NaN","","",""
"1792","","","bandit-task-exp6","23","398639","0.0-4.0-0.9","male","36","australia","93640","26484","neither","neither","imgNWTK/KeepItSecret.jpg","imgNWTK/FindOutNow.jpg","info","eq","3.15","","10","1","2","0","null","imgNWTK/FindOutNow.jpg","imgNWTK/KeepItSecret.jpg","imgNWTK/KeepItSecret.jpg","NaN","NaN","","",""
"905","","","bandit-task-exp6","24","427746","0.0-4.0-0.10","male","36","australia","93640","26484","neither","neither","imgNWTK/KeepItSecret.jpg","imgNWTK/FindOutNow.jpg","info","eq","3.15","","11","1","1","92","null","imgNWTK/KeepItSecret.jpg","imgNWTK/FindOutNow.jpg","imgNWTK/KeepItSecret.jpg","NaN","NaN","","",""
"835","","","bandit-task-exp6","25","450316","0.0-4.0-0.11","male","36","australia","93640","26484","neither","neither","imgNWTK/KeepItSecret.jpg","imgNWTK/FindOutNow.jpg","info","eq","3.15","","12","2","2","93","null","imgNWTK/KeepItSecret.jpg","imgNWTK/FindOutNow.jpg","imgNWTK/FindOutNow.jpg","NaN","NaN","","",""
"1227","","","bandit-task-exp6","26","475967","0.0-4.0-0.12","male","36","australia","93640","26484","neither","neither","imgNWTK/KeepItSecret.jpg","imgNWTK/FindOutNow.jpg","info","eq","3.15","","13","2","2","97","null","imgNWTK/FindOutNow.jpg","imgNWTK/KeepItSecret.jpg","imgNWTK/FindOutNow.jpg","NaN","NaN","","",""
"845","","","bandit-task-exp6","27","501994","0.0-4.0-0.13","male","36","australia","93640","26484","neither","neither","imgNWTK/KeepItSecret.jpg","imgNWTK/FindOutNow.jpg","info","eq","3.15","","14","2","2","104","null","imgNWTK/KeepItSecret.jpg","imgNWTK/FindOutNow.jpg","imgNWTK/FindOutNow.jpg","NaN","NaN","","",""
"833","","","bandit-task-exp6","28","548450","0.0-4.0-0.14","male","36","australia","93640","26484","neither","neither","imgNWTK/KeepItSecret.jpg","imgNWTK/FindOutNow.jpg","info","eq","3.15","","15","1","2","0","null","imgNWTK/FindOutNow.jpg","imgNWTK/KeepItSecret.jpg","imgNWTK/KeepItSecret.jpg","NaN","NaN","","",""
"null","<p><b> Congratulations, you have finished this block. </b> </p><p>Please take a short break before moving onto the next block.</p><p>The next block will start after a 15 second break.</p><b>Remember, the point rewards are the same between blocks","","html-keyboard-response","29","563567","0.0-5.0","male","36","australia","93640","26484","neither","neither","imgNWTK/KeepItSecret.jpg","imgNWTK/FindOutNow.jpg","info","eq","3.15","","","","","","","","","","","","null","",""
"15523","","","bandit-task-exp6","30","604902","0.0-6.0-0.0","male","36","australia","93640","26484","neither","neither","imgNWTK/KeepItSecret.jpg","imgNWTK/FindOutNow.jpg","info","eq","3.15","","16","1","1","110","null","imgNWTK/KeepItSecret.jpg","imgNWTK/FindOutNow.jpg","imgNWTK/KeepItSecret.jpg","NaN","NaN","","",""
"800","","","bandit-task-exp6","31","627685","0.0-6.0-0.1","male","36","australia","93640","26484","neither","neither","imgNWTK/KeepItSecret.jpg","imgNWTK/FindOutNow.jpg","info","eq","3.15","","17","2","1","0","null","imgNWTK/KeepItSecret.jpg","imgNWTK/FindOutNow.jpg","imgNWTK/FindOutNow.jpg","NaN","NaN","","",""
"724","","","bandit-task-exp6","32","658106","0.0-6.0-0.2","male","36","australia","93640","26484","neither","neither","imgNWTK/KeepItSecret.jpg","imgNWTK/FindOutNow.jpg","info","eq","3.15","","18","2","1","0","null","imgNWTK/KeepItSecret.jpg","imgNWTK/FindOutNow.jpg","imgNWTK/FindOutNow.jpg","NaN","NaN","","",""
"774","","","bandit-task-exp6","33","680714","0.0-6.0-0.3","male","36","australia","93640","26484","neither","neither","imgNWTK/KeepItSecret.jpg","imgNWTK/FindOutNow.jpg","info","eq","3.15","","19","1","1","109","null","imgNWTK/KeepItSecret.jpg","imgNWTK/FindOutNow.jpg","imgNWTK/KeepItSecret.jpg","NaN","NaN","","",""
"30992","","","bandit-task-exp6","34","745090","0.0-6.0-0.4","male","36","australia","93640","26484","neither","neither","imgNWTK/KeepItSecret.jpg","imgNWTK/FindOutNow.jpg","info","eq","3.15","","20","2","2","93","null","imgNWTK/KeepItSecret.jpg","imgNWTK/FindOutNow.jpg","imgNWTK/FindOutNow.jpg","NaN","NaN","","",""
"802","","","bandit-task-exp6","35","772621","0.0-6.0-0.5","male","36","australia","93640","26484","neither","neither","imgNWTK/KeepItSecret.jpg","imgNWTK/FindOutNow.jpg","info","eq","3.15","","21","2","2","107","null","imgNWTK/FindOutNow.jpg","imgNWTK/KeepItSecret.jpg","imgNWTK/FindOutNow.jpg","NaN","NaN","","",""
"624","","","bandit-task-exp6","36","812353","0.0-6.0-0.6","male","36","australia","93640","26484","neither","neither","imgNWTK/KeepItSecret.jpg","imgNWTK/FindOutNow.jpg","info","eq","3.15","","22","2","2","90","null","imgNWTK/KeepItSecret.jpg","imgNWTK/FindOutNow.jpg","imgNWTK/FindOutNow.jpg","NaN","NaN","","",""
"923","","","bandit-task-exp6","37","838090","0.0-6.0-0.7","male","36","australia","93640","26484","neither","neither","imgNWTK/KeepItSecret.jpg","imgNWTK/FindOutNow.jpg","info","eq","3.15","","23","2","1","0","null","imgNWTK/FindOutNow.jpg","imgNWTK/KeepItSecret.jpg","imgNWTK/FindOutNow.jpg","NaN","NaN","","",""
"845","","","bandit-task-exp6","38","875850","0.0-6.0-0.8","male","36","australia","93640","26484","neither","neither","imgNWTK/KeepItSecret.jpg","imgNWTK/FindOutNow.jpg","info","eq","3.15","","24","1","2","0","null","imgNWTK/FindOutNow.jpg","imgNWTK/KeepItSecret.jpg","imgNWTK/KeepItSecret.jpg","NaN","NaN","","",""
"676","","","bandit-task-exp6","39","983865","0.0-6.0-0.9","male","36","australia","93640","26484","neither","neither","imgNWTK/KeepItSecret.jpg","imgNWTK/FindOutNow.jpg","info","eq","3.15","","25","1","1","98","null","imgNWTK/KeepItSecret.jpg","imgNWTK/FindOutNow.jpg","imgNWTK/KeepItSecret.jpg","NaN","NaN","","",""
"835","","","bandit-task-exp6","40","1014256","0.0-6.0-0.10","male","36","australia","93640","26484","neither","neither","imgNWTK/KeepItSecret.jpg","imgNWTK/FindOutNow.jpg","info","eq","3.15","","26","1","1","93","null","imgNWTK/KeepItSecret.jpg","imgNWTK/FindOutNow.jpg","imgNWTK/KeepItSecret.jpg","NaN","NaN","","",""
"739","","","bandit-task-exp6","41","1055877","0.0-6.0-0.11","male","36","australia","93640","26484","neither","neither","imgNWTK/KeepItSecret.jpg","imgNWTK/FindOutNow.jpg","info","eq","3.15","","27","2","1","0","null","imgNWTK/KeepItSecret.jpg","imgNWTK/FindOutNow.jpg","imgNWTK/FindOutNow.jpg","NaN","NaN","","",""
"665","","","bandit-task-exp6","42","1082216","0.0-6.0-0.12","male","36","australia","93640","26484","neither","neither","imgNWTK/KeepItSecret.jpg","imgNWTK/FindOutNow.jpg","info","eq","3.15","","28","1","2","0","null","imgNWTK/FindOutNow.jpg","imgNWTK/KeepItSecret.jpg","imgNWTK/KeepItSecret.jpg","NaN","NaN","","",""
"589","","","bandit-task-exp6","43","1111767","0.0-6.0-0.13","male","36","australia","93640","26484","neither","neither","imgNWTK/KeepItSecret.jpg","imgNWTK/FindOutNow.jpg","info","eq","3.15","","29","1","1","91","null","imgNWTK/KeepItSecret.jpg","imgNWTK/FindOutNow.jpg","imgNWTK/KeepItSecret.jpg","NaN","NaN","","",""
"738","","","bandit-task-exp6","44","1139964","0.0-6.0-0.14","male","36","australia","93640","26484","neither","neither","imgNWTK/KeepItSecret.jpg","imgNWTK/FindOutNow.jpg","info","eq","3.15","","30","1","1","96","null","imgNWTK/KeepItSecret.jpg","imgNWTK/FindOutNow.jpg","imgNWTK/KeepItSecret.jpg","NaN","NaN","","",""
"null","<p><b> Congratulations, you have finished this block. </b> </p><p>Please take a short break before moving onto the next block.</p><p>The next block will start after a 15 second break.</p><b>Remember, the point rewards are the same between blocks","","html-keyboard-response","45","1155571","0.0-7.0","male","36","australia","93640","26484","neither","neither","imgNWTK/KeepItSecret.jpg","imgNWTK/FindOutNow.jpg","info","eq","3.15","","","","","","","","","","","","null","",""
"20878","","","bandit-task-exp6","46","1209466","0.0-8.0-0.0","male","36","australia","93640","26484","neither","neither","imgNWTK/KeepItSecret.jpg","imgNWTK/FindOutNow.jpg","info","eq","3.15","","31","2","1","0","null","imgNWTK/FindOutNow.jpg","imgNWTK/KeepItSecret.jpg","imgNWTK/FindOutNow.jpg","NaN","NaN","","",""
"1023","","","bandit-task-exp6","47","1239561","0.0-8.0-0.1","male","36","australia","93640","26484","neither","neither","imgNWTK/KeepItSecret.jpg","imgNWTK/FindOutNow.jpg","info","eq","3.15","","32","2","1","0","null","imgNWTK/KeepItSecret.jpg","imgNWTK/FindOutNow.jpg","imgNWTK/FindOutNow.jpg","NaN","NaN","","",""
"627","","","bandit-task-exp6","48","1272855","0.0-8.0-0.2","male","36","australia","93640","26484","neither","neither","imgNWTK/KeepItSecret.jpg","imgNWTK/FindOutNow.jpg","info","eq","3.15","","33","1","2","0","null","imgNWTK/FindOutNow.jpg","imgNWTK/KeepItSecret.jpg","imgNWTK/KeepItSecret.jpg","NaN","NaN","","",""
"682","","","bandit-task-exp6","49","1295446","0.0-8.0-0.3","male","36","australia","93640","26484","neither","neither","imgNWTK/KeepItSecret.jpg","imgNWTK/FindOutNow.jpg","info","eq","3.15","","34","2","2","104","null","imgNWTK/FindOutNow.jpg","imgNWTK/KeepItSecret.jpg","imgNWTK/FindOutNow.jpg","NaN","NaN","","",""
"714","","","bandit-task-exp6","50","1320899","0.0-8.0-0.4","male","36","australia","93640","26484","neither","neither","imgNWTK/KeepItSecret.jpg","imgNWTK/FindOutNow.jpg","info","eq","3.15","","35","1","2","0","null","imgNWTK/FindOutNow.jpg","imgNWTK/KeepItSecret.jpg","imgNWTK/KeepItSecret.jpg","NaN","NaN","","",""
"701","","","bandit-task-exp6","51","1350349","0.0-8.0-0.5","male","36","australia","93640","26484","neither","neither","imgNWTK/KeepItSecret.jpg","imgNWTK/FindOutNow.jpg","info","eq","3.15","","36","2","2","91","null","imgNWTK/KeepItSecret.jpg","imgNWTK/FindOutNow.jpg","imgNWTK/FindOutNow.jpg","NaN","NaN","","",""
"749","","","bandit-task-exp6","52","1375903","0.0-8.0-0.6","male","36","australia","93640","26484","neither","neither","imgNWTK/KeepItSecret.jpg","imgNWTK/FindOutNow.jpg","info","eq","3.15","","37","2","2","101","null","imgNWTK/FindOutNow.jpg","imgNWTK/KeepItSecret.jpg","imgNWTK/FindOutNow.jpg","NaN","NaN","","",""
"847","","","bandit-task-exp6","53","1401390","0.0-8.0-0.7","male","36","australia","93640","26484","neither","neither","imgNWTK/KeepItSecret.jpg","imgNWTK/FindOutNow.jpg","info","eq","3.15","","38","2","1","0","null","imgNWTK/FindOutNow.jpg","imgNWTK/KeepItSecret.jpg","imgNWTK/FindOutNow.jpg","NaN","NaN","","",""
"687","","","bandit-task-exp6","54","1425312","0.0-8.0-0.8","male","36","australia","93640","26484","neither","neither","imgNWTK/KeepItSecret.jpg","imgNWTK/FindOutNow.jpg","info","eq","3.15","","39","2","1","0","null","imgNWTK/FindOutNow.jpg","imgNWTK/KeepItSecret.jpg","imgNWTK/FindOutNow.jpg","NaN","NaN","","",""
"1362","","","bandit-task-exp6","55","1457741","0.0-8.0-0.9","male","36","australia","93640","26484","neither","neither","imgNWTK/KeepItSecret.jpg","imgNWTK/FindOutNow.jpg","info","eq","3.15","","40","2","1","0","null","imgNWTK/FindOutNow.jpg","imgNWTK/KeepItSecret.jpg","imgNWTK/FindOutNow.jpg","NaN","NaN","","",""
"457","","","bandit-task-exp6","56","1483323","0.0-8.0-0.10","male","36","australia","93640","26484","neither","neither","imgNWTK/KeepItSecret.jpg","imgNWTK/FindOutNow.jpg","info","eq","3.15","","41","2","2","98","null","imgNWTK/FindOutNow.jpg","imgNWTK/KeepItSecret.jpg","imgNWTK/FindOutNow.jpg","NaN","NaN","","",""
"575","","","bandit-task-exp6","57","1508022","0.0-8.0-0.11","male","36","australia","93640","26484","neither","neither","imgNWTK/KeepItSecret.jpg","imgNWTK/FindOutNow.jpg","info","eq","3.15","","42","2","1","0","null","imgNWTK/KeepItSecret.jpg","imgNWTK/FindOutNow.jpg","imgNWTK/FindOutNow.jpg","NaN","NaN","","",""
"587","","","bandit-task-exp6","58","1538972","0.0-8.0-0.12","male","36","australia","93640","26484","neither","neither","imgNWTK/KeepItSecret.jpg","imgNWTK/FindOutNow.jpg","info","eq","3.15","","43","2","2","108","null","imgNWTK/FindOutNow.jpg","imgNWTK/KeepItSecret.jpg","imgNWTK/FindOutNow.jpg","NaN","NaN","","",""
"498","","","bandit-task-exp6","59","1565299","0.0-8.0-0.13","male","36","australia","93640","26484","neither","neither","imgNWTK/KeepItSecret.jpg","imgNWTK/FindOutNow.jpg","info","eq","3.15","","44","2","2","95","null","imgNWTK/FindOutNow.jpg","imgNWTK/KeepItSecret.jpg","imgNWTK/FindOutNow.jpg","NaN","NaN","","",""
"575","","","bandit-task-exp6","60","1602359","0.0-8.0-0.14","male","36","australia","93640","26484","neither","neither","imgNWTK/KeepItSecret.jpg","imgNWTK/FindOutNow.jpg","info","eq","3.15","","45","2","2","101","null","imgNWTK/FindOutNow.jpg","imgNWTK/KeepItSecret.jpg","imgNWTK/FindOutNow.jpg","NaN","NaN","","",""
"null","<p><b> Congratulations, you have finished this block. </b> </p><p>Please take a short break before moving onto the next block.</p><p>The next block will start after a 15 second break.</p><b>Remember, the point rewards are the same between blocks","","html-keyboard-response","61","1617570","0.0-9.0","male","36","australia","93640","26484","neither","neither","imgNWTK/KeepItSecret.jpg","imgNWTK/FindOutNow.jpg","info","eq","3.15","","","","","","","","","","","","null","",""
"59118","","","bandit-task-exp6","62","1698633","0.0-10.0-0.0","male","36","australia","93640","26484","neither","neither","imgNWTK/KeepItSecret.jpg","imgNWTK/FindOutNow.jpg","info","eq","3.15","","46","1","2","0","null","imgNWTK/KeepItSecret.jpg","imgNWTK/FindOutNow.jpg","imgNWTK/KeepItSecret.jpg","50","50","","",""
"13788","","","bandit-task-exp6","63","1744018","0.0-10.0-0.1","male","36","australia","93640","26484","neither","neither","imgNWTK/KeepItSecret.jpg","imgNWTK/FindOutNow.jpg","info","eq","3.15","","47","1","2","0","null","imgNWTK/FindOutNow.jpg","imgNWTK/KeepItSecret.jpg","imgNWTK/KeepItSecret.jpg","50","50","","",""
"7641","","","bandit-task-exp6","64","1786219","0.0-10.0-0.2","male","36","australia","93640","26484","neither","neither","imgNWTK/KeepItSecret.jpg","imgNWTK/FindOutNow.jpg","info","eq","3.15","","48","2","1","0","null","imgNWTK/FindOutNow.jpg","imgNWTK/KeepItSecret.jpg","imgNWTK/FindOutNow.jpg","50","50","","",""
"6886","","","bandit-task-exp6","65","1824922","0.0-10.0-0.3","male","36","australia","93640","26484","neither","neither","imgNWTK/KeepItSecret.jpg","imgNWTK/FindOutNow.jpg","info","eq","3.15","","49","2","2","92","null","imgNWTK/FindOutNow.jpg","imgNWTK/KeepItSecret.jpg","imgNWTK/FindOutNow.jpg","50","50","","",""
"9074","","","bandit-task-exp6","66","1857114","0.0-10.0-0.4","male","36","australia","93640","26484","neither","neither","imgNWTK/KeepItSecret.jpg","imgNWTK/FindOutNow.jpg","info","eq","3.15","","50","1","1","96","null","imgNWTK/KeepItSecret.jpg","imgNWTK/FindOutNow.jpg","imgNWTK/KeepItSecret.jpg","50","50","","",""
"6979","","","bandit-task-exp6","67","1891528","0.0-10.0-0.5","male","36","australia","93640","26484","neither","neither","imgNWTK/KeepItSecret.jpg","imgNWTK/FindOutNow.jpg","info","eq","3.15","","51","1","2","0","null","imgNWTK/KeepItSecret.jpg","imgNWTK/FindOutNow.jpg","imgNWTK/KeepItSecret.jpg","50","50","","",""
"7796","","","bandit-task-exp6","68","1929763","0.0-10.0-0.6","male","36","australia","93640","26484","neither","neither","imgNWTK/KeepItSecret.jpg","imgNWTK/FindOutNow.jpg","info","eq","3.15","","52","1","1","106","null","imgNWTK/FindOutNow.jpg","imgNWTK/KeepItSecret.jpg","imgNWTK/KeepItSecret.jpg","50","50","","",""
"7060","","","bandit-task-exp6","69","1961960","0.0-10.0-0.7","male","36","australia","93640","26484","neither","neither","imgNWTK/KeepItSecret.jpg","imgNWTK/FindOutNow.jpg","info","eq","3.15","","53","1","1","104","null","imgNWTK/KeepItSecret.jpg","imgNWTK/FindOutNow.jpg","imgNWTK/KeepItSecret.jpg","50","50","","",""
"6224","","","bandit-task-exp6","70","1990515","0.0-10.0-0.8","male","36","australia","93640","26484","neither","neither","imgNWTK/KeepItSecret.jpg","imgNWTK/FindOutNow.jpg","info","eq","3.15","","54","2","1","0","null","imgNWTK/FindOutNow.jpg","imgNWTK/KeepItSecret.jpg","imgNWTK/FindOutNow.jpg","50","50","","",""
"7599","","","bandit-task-exp6","71","2020678","0.0-10.0-0.9","male","36","australia","93640","26484","neither","neither","imgNWTK/KeepItSecret.jpg","imgNWTK/FindOutNow.jpg","info","eq","3.15","","55","1","2","0","null","imgNWTK/FindOutNow.jpg","imgNWTK/KeepItSecret.jpg","imgNWTK/KeepItSecret.jpg","50","50","","",""
"5645","","","bandit-task-exp6","72","2048346","0.0-10.0-0.10","male","36","australia","93640","26484","neither","neither","imgNWTK/KeepItSecret.jpg","imgNWTK/FindOutNow.jpg","info","eq","3.15","","56","2","2","107","null","imgNWTK/FindOutNow.jpg","imgNWTK/KeepItSecret.jpg","imgNWTK/FindOutNow.jpg","50","50","","",""
"5425","","","bandit-task-exp6","73","2075714","0.0-10.0-0.11","male","36","australia","93640","26484","neither","neither","imgNWTK/KeepItSecret.jpg","imgNWTK/FindOutNow.jpg","info","eq","3.15","","57","2","2","95","null","imgNWTK/KeepItSecret.jpg","imgNWTK/FindOutNow.jpg","imgNWTK/FindOutNow.jpg","50","50","","",""
"11722","","","bandit-task-exp6","74","2114644","0.0-10.0-0.12","male","36","australia","93640","26484","neither","neither","imgNWTK/KeepItSecret.jpg","imgNWTK/FindOutNow.jpg","info","eq","3.15","","58","2","2","104","null","imgNWTK/KeepItSecret.jpg","imgNWTK/FindOutNow.jpg","imgNWTK/FindOutNow.jpg","50","50","","",""
"7588","","","bandit-task-exp6","75","2144362","0.0-10.0-0.13","male","36","australia","93640","26484","neither","neither","imgNWTK/KeepItSecret.jpg","imgNWTK/FindOutNow.jpg","info","eq","3.15","","59","2","1","0","null","imgNWTK/FindOutNow.jpg","imgNWTK/KeepItSecret.jpg","imgNWTK/FindOutNow.jpg","50","50","","",""
"5391","","","bandit-task-exp6","76","2179260","0.0-10.0-0.14","male","36","australia","93640","26484","neither","neither","imgNWTK/KeepItSecret.jpg","imgNWTK/FindOutNow.jpg","info","eq","3.15","","60","2","1","0","null","imgNWTK/KeepItSecret.jpg","imgNWTK/FindOutNow.jpg","imgNWTK/FindOutNow.jpg","50","50","","",""
"3197","<p> Congratulations, you have finished the main part of the experiment. </p><p>Before you finish, we have a few short questions about the options and outcomes you saw in the task.</p>","0","html-button-response","77","2182458","0.0-11.0","male","36","australia","93640","26484","neither","neither","imgNWTK/KeepItSecret.jpg","imgNWTK/FindOutNow.jpg","info","eq","3.15","","","","","","","","","","","","","",""
"9039","<p><b>Now, imagine that you clicked on the below button for another 10 trials (this includes <i> BOTH WIN and NO-WIN trials</i>).</p> <img src= 'imgNWTK/FindOutNow.jpg'></img></br></br> <p><b>Please type the reward (number of points) you would expect to receive on every trial.</br> Click start to begin.</p>","0","html-button-response","78","2191498","0.0-12.0","male","36","australia","93640","26484","neither","neither","imgNWTK/KeepItSecret.jpg","imgNWTK/FindOutNow.jpg","info","eq","3.15","","","","","","","","","","","","","",""
"7233.20000000298","","","survey-number","79","2198734","0.0-13.0-0.0","male","36","australia","93640","26484","neither","neither","imgNWTK/KeepItSecret.jpg","imgNWTK/FindOutNow.jpg","info","eq","3.15","{""undefined"":""95""}","","","","","","","","","","","","imgNWTK/FindOutNow.jpg",""
"4708.100000008941","","","survey-number","80","2203443","0.0-13.0-0.1","male","36","australia","93640","26484","neither","neither","imgNWTK/KeepItSecret.jpg","imgNWTK/FindOutNow.jpg","info","eq","3.15","{""undefined"":""50""}","","","","","","","","","","","","imgNWTK/FindOutNow.jpg",""
"954.6999999880791","","","survey-number","81","2204400","0.0-13.0-0.2","male","36","australia","93640","26484","neither","neither","imgNWTK/KeepItSecret.jpg","imgNWTK/FindOutNow.jpg","info","eq","3.15","{""undefined"":""50""}","","","","","","","","","","","","imgNWTK/FindOutNow.jpg",""
"616.6999999880791","","","survey-number","82","2205018","0.0-13.0-0.3","male","36","australia","93640","26484","neither","neither","imgNWTK/KeepItSecret.jpg","imgNWTK/FindOutNow.jpg","info","eq","3.15","{""undefined"":""50""}","","","","","","","","","","","","imgNWTK/FindOutNow.jpg",""
"555.8999999910593","","","survey-number","83","2205575","0.0-13.0-0.4","male","36","australia","93640","26484","neither","neither","imgNWTK/KeepItSecret.jpg","imgNWTK/FindOutNow.jpg","info","eq","3.15","{""undefined"":""50""}","","","","","","","","","","","","imgNWTK/FindOutNow.jpg",""
"598.6000000089407","","","survey-number","84","2206174","0.0-13.0-0.5","male","36","australia","93640","26484","neither","neither","imgNWTK/KeepItSecret.jpg","imgNWTK/FindOutNow.jpg","info","eq","3.15","{""undefined"":""50""}","","","","","","","","","","","","imgNWTK/FindOutNow.jpg",""
"515.9000000059605","","","survey-number","85","2206691","0.0-13.0-0.6","male","36","australia","93640","26484","neither","neither","imgNWTK/KeepItSecret.jpg","imgNWTK/FindOutNow.jpg","info","eq","3.15","{""undefined"":""50""}","","","","","","","","","","","","imgNWTK/FindOutNow.jpg",""
"575.8999999910593","","","survey-number","86","2207269","0.0-13.0-0.7","male","36","australia","93640","26484","neither","neither","imgNWTK/KeepItSecret.jpg","imgNWTK/FindOutNow.jpg","info","eq","3.15","{""undefined"":""50""}","","","","","","","","","","","","imgNWTK/FindOutNow.jpg",""
"603.8999999910593","","","survey-number","87","2207873","0.0-13.0-0.8","male","36","australia","93640","26484","neither","neither","imgNWTK/KeepItSecret.jpg","imgNWTK/FindOutNow.jpg","info","eq","3.15","{""undefined"":""50""}","","","","","","","","","","","","imgNWTK/FindOutNow.jpg",""
"535.8999999910593","","","survey-number","88","2208411","0.0-13.0-0.9","male","36","australia","93640","26484","neither","neither","imgNWTK/KeepItSecret.jpg","imgNWTK/FindOutNow.jpg","info","eq","3.15","{""undefined"":""50""}","","","","","","","","","","","","imgNWTK/FindOutNow.jpg",""
"3574","<p><b>Imagine that you clicked on the below button for another 10 trials (this includes <i> both WIN and NO-WIN trials</i>).</p> <img src= 'imgNWTK/KeepItSecret.jpg'></img></br></br> <p><b>Please type the reward (number of points) you would expect to receive on every trial.</br> Click start to begin.</p>","0","html-button-response","89","2211985","0.0-14.0","male","36","australia","93640","26484","neither","neither","imgNWTK/KeepItSecret.jpg","imgNWTK/FindOutNow.jpg","info","eq","3.15","","","","","","","","","","","","","",""
"3661.6000000089407","","","survey-number","90","2215648","0.0-15.0-0.0","male","36","australia","93640","26484","neither","neither","imgNWTK/KeepItSecret.jpg","imgNWTK/FindOutNow.jpg","info","eq","3.15","{""undefined"":""50""}","","","","","","","","","","","","imgNWTK/KeepItSecret.jpg",""
"510.8999999910593","","","survey-number","91","2216161","0.0-15.0-0.1","male","36","australia","93640","26484","neither","neither","imgNWTK/KeepItSecret.jpg","imgNWTK/FindOutNow.jpg","info","eq","3.15","{""undefined"":""50""}","","","","","","","","","","","","imgNWTK/KeepItSecret.jpg",""
"2798.8999999910593","","","survey-number","92","2218960","0.0-15.0-0.2","male","36","australia","93640","26484","neither","neither","imgNWTK/KeepItSecret.jpg","imgNWTK/FindOutNow.jpg","info","eq","3.15","{""undefined"":""50""}","","","","","","","","","","","","imgNWTK/KeepItSecret.jpg",""
"702.7000000029802","","","survey-number","93","2219664","0.0-15.0-0.3","male","36","australia","93640","26484","neither","neither","imgNWTK/KeepItSecret.jpg","imgNWTK/FindOutNow.jpg","info","eq","3.15","{""undefined"":""50""}","","","","","","","","","","","","imgNWTK/KeepItSecret.jpg",""
"552.0999999940395","","","survey-number","94","2220217","0.0-15.0-0.4","male","36","australia","93640","26484","neither","neither","imgNWTK/KeepItSecret.jpg","imgNWTK/FindOutNow.jpg","info","eq","3.15","{""undefined"":""50""}","","","","","","","","","","","","imgNWTK/KeepItSecret.jpg",""
"605.9000000059605","","","survey-number","95","2220824","0.0-15.0-0.5","male","36","australia","93640","26484","neither","neither","imgNWTK/KeepItSecret.jpg","imgNWTK/FindOutNow.jpg","info","eq","3.15","{""undefined"":""50""}","","","","","","","","","","","","imgNWTK/KeepItSecret.jpg",""
"751.8999999910593","","","survey-number","96","2221578","0.0-15.0-0.6","male","36","australia","93640","26484","neither","neither","imgNWTK/KeepItSecret.jpg","imgNWTK/FindOutNow.jpg","info","eq","3.15","{""undefined"":""50""}","","","","","","","","","","","","imgNWTK/KeepItSecret.jpg",""
"544.7000000029802","","","survey-number","97","2222123","0.0-15.0-0.7","male","36","australia","93640","26484","neither","neither","imgNWTK/KeepItSecret.jpg","imgNWTK/FindOutNow.jpg","info","eq","3.15","{""undefined"":""50""}","","","","","","","","","","","","imgNWTK/KeepItSecret.jpg",""
"631.9000000059605","","","survey-number","98","2222756","0.0-15.0-0.8","male","36","australia","93640","26484","neither","neither","imgNWTK/KeepItSecret.jpg","imgNWTK/FindOutNow.jpg","info","eq","3.15","{""undefined"":""50""}","","","","","","","","","","","","imgNWTK/KeepItSecret.jpg",""
"617.2000000029802","","","survey-number","99","2223375","0.0-15.0-0.9","male","36","australia","93640","26484","neither","neither","imgNWTK/KeepItSecret.jpg","imgNWTK/FindOutNow.jpg","info","eq","3.15","{""undefined"":""50""}","","","","","","","","","","","","imgNWTK/KeepItSecret.jpg",""
"21514.5","","","survey-number","100","2244895","0.0-16.0","male","36","australia","93640","26484","neither","neither","imgNWTK/KeepItSecret.jpg","imgNWTK/FindOutNow.jpg","info","eq","3.15","{""undefined"":""50""}","","","","","","","","","","","","","imgNWTK/KeepItSecret.jpg"
"3965","","","survey-number","101","2248862","0.0-17.0","male","36","australia","93640","26484","neither","neither","imgNWTK/KeepItSecret.jpg","imgNWTK/FindOutNow.jpg","info","eq","3.15","{""undefined"":""50""}","","","","","","","","","","","","","imgNWTK/FindOutNow.jpg"
"32383","<p style=""text-align:left;"">Great! We are almost at the end of the study... (Please do not close the browser window yet.)</p><p> Your final points balance is 3146, which equals to a bonus payment of $3.15. Please collect your payment from Mathews Building Room 721 (Wed-Fri 9am-5pm); please email jaimie.lee@unsw.edu.au at least 24 hours prior to collection so that this is ready for you.</p><p style=""text-align:left;"">To view the debriefing form, please click <a href=""./imgNWTK/debrief_3205.pdf"" target=""_blank"">here</a> to download a copy.</p><p style=""text-align:left;"">Then, <b>please click the below button</b> to confirm that you have received your debrief and to complete the study. Upon clicking ""Finish!"", your SONA credit will be automatically assigned.</p>","0","html-button-response","102","2281246","0.0-18.0","male","36","australia","93640","26484","neither","neither","imgNWTK/KeepItSecret.jpg","imgNWTK/FindOutNow.jpg","info","eq","3.15","","","","","","","","","","","","","",""
