"rt","stimulus","button_pressed","trial_type","trial_index","time_elapsed","internal_node_id","gender","age","language","PID","sona_id","subStim","optStim","stim1","stim2","infoCond","optimCond","bonus","responses","banditTrial","choice","cue","feedback","estimateData","leftOption","rightOption","choiceName","leftInput","rightInput","key_press","postQ","singleEst"
"12875","<p>Thank you for signing up to participate in SONA Study 465! <br> During this study, please focus on the experiment and refrain from activities such as:</p>- <b>Switching to other tabs on your browser (this will be monitored via the experiment)</br> - Using your mobile phone/cell phone</br> - Communicating with others</br></br></b><p>This way, you are helping to provide data that is useful for psychological research. We thank you for your cooperation!</p>","0","html-button-response","0","12880","0.0-0.0","female","18","australia","94214","25928","imgNWTK/square.png","imgNWTK/triangle.png","imgNWTK/square.png","imgNWTK/triangle.png","noninfo","optim","2.90","","","","","","","","","","","","","",""
"1012","<p>Welcome to the experiment!</p><p>You will now read some instructions about the task. Press the 'Next' button to continue. </p>","0","html-button-response","1","13895","0.0-1.0","female","18","australia","94214","25928","imgNWTK/square.png","imgNWTK/triangle.png","imgNWTK/square.png","imgNWTK/triangle.png","noninfo","optim","2.90","","","","","","","","","","","","","",""
"17330","<p> On each trial throughout the experiment you will choose between two options, </br>a <b>Black Square </b> and <b> Black Triangle </b>, as seen below.</p><div><div style= 'float: left; width: 300px; margin: 10px 10px;'><img src= 'imgNWTK/square.png'></img></div><div style= 'float: right; width: 300px; margin: 10px 10px;'><img src= 'imgNWTK/triangle.png'></img></div></div><br/><br/><br/><br/><br/><br/><br/><br/><br/><br/><br/><p>Each option results in winning points or receiving 0 points.</br>There is a 50% chance of either winning or receiving 0 points.</p><p>You won't receive the outcome until after a <b> 20 second delay</b>.</p>","0","html-button-response","2","31229","0.0-2.0-0.0","female","18","australia","94214","25928","imgNWTK/square.png","imgNWTK/triangle.png","imgNWTK/square.png","imgNWTK/triangle.png","noninfo","optim","2.90","","","","","","","","","","","","","",""
"20398","<img src= 'imgNWTK/NonInfoDiagram.png'></img><p>As seen above, whether you choose the square or triangle, you will receive a coloured circle after the choice. </p> <p>This circle will be on screen for 20 seconds until you win points or receive 0 points.</p><p>The coloured circle depends on which option you chose. </br> In the above example, choosing a triangle leads to a green circle and choosing the square leads to a red circle.</p>Please note: the circles in your task will be different to the above colours.</br></br>","0","html-button-response","3","51630","0.0-2.0-1.0","female","18","australia","94214","25928","imgNWTK/square.png","imgNWTK/triangle.png","imgNWTK/square.png","imgNWTK/triangle.png","noninfo","optim","2.90","","","","","","","","","","","","","",""
"5614","<img src= 'cues/winTrials_noInfo.png' width = '1200'></img><p>To reiterate, 50% of the outcomes of each option will be WIN TRIALS, and the other 50% will be NO-WIN TRIALS.","0","html-button-response","4","57247","0.0-2.0-2.0","female","18","australia","94214","25928","imgNWTK/square.png","imgNWTK/triangle.png","imgNWTK/square.png","imgNWTK/triangle.png","noninfo","optim","2.90","","","","","","","","","","","","","",""
"3381","<p> There will be <b>four blocks</b> in the experiment.</br>You will be given a short 15 second break between each block.</p><p><b>The points and the options will remain the same between the blocks.</b></p>The blocks are there just to give you a small break.</br></br></br></br><p>The points you earn in the task are also equal to <b> actual money</b>.</br> <b>1000 points is equal to $1 AUD</b></p><p>This is the rate you will be paid at the experiment's end.","0","html-button-response","5","60630","0.0-2.0-3.0","female","18","australia","94214","25928","imgNWTK/square.png","imgNWTK/triangle.png","imgNWTK/square.png","imgNWTK/triangle.png","noninfo","optim","2.90","","","","","","","","","","","","","",""
"20694","","","survey-multi-choice","6","81333","0.0-2.0-4.0","female","18","australia","94214","25928","imgNWTK/square.png","imgNWTK/triangle.png","imgNWTK/square.png","imgNWTK/triangle.png","noninfo","optim","2.90","{""Q0"":""20 Seconds"",""Q1"":""True"",""Q2"":""Equally""}","","","","","","","","","","","","",""
"1610","<p> Well done, all your answers were correct! <br> The experiment is about to start now. <br/> Click start to continue, or email your researcher <b>(amy.x.li@unsw.edu.au)</b> if you have any questions before starting.","0","html-button-response","7","82947","0.0-3.0","female","18","australia","94214","25928","imgNWTK/square.png","imgNWTK/triangle.png","imgNWTK/square.png","imgNWTK/triangle.png","noninfo","optim","2.90","","","","","","","","","","","","","",""
"3078","","","bandit-task-exp6","8","110565","0.0-4.0-0.0","female","18","australia","94214","25928","imgNWTK/square.png","imgNWTK/triangle.png","imgNWTK/square.png","imgNWTK/triangle.png","noninfo","optim","2.90","","1","2","2","119","null","imgNWTK/triangle.png","imgNWTK/square.png","imgNWTK/triangle.png","NaN","NaN","","",""
"6229","","","bandit-task-exp6","9","139284","0.0-4.0-0.1","female","18","australia","94214","25928","imgNWTK/square.png","imgNWTK/triangle.png","imgNWTK/square.png","imgNWTK/triangle.png","noninfo","optim","2.90","","2","2","1","0","null","imgNWTK/triangle.png","imgNWTK/square.png","imgNWTK/triangle.png","NaN","NaN","","",""
"13445","","","bandit-task-exp6","10","192953","0.0-4.0-0.2","female","18","australia","94214","25928","imgNWTK/square.png","imgNWTK/triangle.png","imgNWTK/square.png","imgNWTK/triangle.png","noninfo","optim","2.90","","3","2","1","0","null","imgNWTK/square.png","imgNWTK/triangle.png","imgNWTK/triangle.png","NaN","NaN","","",""
"19378","","","bandit-task-exp6","11","242236","0.0-4.0-0.3","female","18","australia","94214","25928","imgNWTK/square.png","imgNWTK/triangle.png","imgNWTK/square.png","imgNWTK/triangle.png","noninfo","optim","2.90","","4","2","1","0","null","imgNWTK/square.png","imgNWTK/triangle.png","imgNWTK/triangle.png","NaN","NaN","","",""
"20880","","","bandit-task-exp6","12","288172","0.0-4.0-0.4","female","18","australia","94214","25928","imgNWTK/square.png","imgNWTK/triangle.png","imgNWTK/square.png","imgNWTK/triangle.png","noninfo","optim","2.90","","5","1","1","85","null","imgNWTK/square.png","imgNWTK/triangle.png","imgNWTK/square.png","NaN","NaN","","",""
"21562","","","bandit-task-exp6","13","335823","0.0-4.0-0.5","female","18","australia","94214","25928","imgNWTK/square.png","imgNWTK/triangle.png","imgNWTK/square.png","imgNWTK/triangle.png","noninfo","optim","2.90","","6","1","1","80","null","imgNWTK/triangle.png","imgNWTK/square.png","imgNWTK/square.png","NaN","NaN","","",""
"2278","","","bandit-task-exp6","14","360625","0.0-4.0-0.6","female","18","australia","94214","25928","imgNWTK/square.png","imgNWTK/triangle.png","imgNWTK/square.png","imgNWTK/triangle.png","noninfo","optim","2.90","","7","2","1","0","null","imgNWTK/triangle.png","imgNWTK/square.png","imgNWTK/triangle.png","NaN","NaN","","",""
"20845","","","bandit-task-exp6","15","404242","0.0-4.0-0.7","female","18","australia","94214","25928","imgNWTK/square.png","imgNWTK/triangle.png","imgNWTK/square.png","imgNWTK/triangle.png","noninfo","optim","2.90","","8","1","1","75","null","imgNWTK/triangle.png","imgNWTK/square.png","imgNWTK/square.png","NaN","NaN","","",""
"18745","","","bandit-task-exp6","16","446261","0.0-4.0-0.8","female","18","australia","94214","25928","imgNWTK/square.png","imgNWTK/triangle.png","imgNWTK/square.png","imgNWTK/triangle.png","noninfo","optim","2.90","","9","2","2","121","null","imgNWTK/square.png","imgNWTK/triangle.png","imgNWTK/triangle.png","NaN","NaN","","",""
"21929","","","bandit-task-exp6","17","492279","0.0-4.0-0.9","female","18","australia","94214","25928","imgNWTK/square.png","imgNWTK/triangle.png","imgNWTK/square.png","imgNWTK/triangle.png","noninfo","optim","2.90","","10","1","1","85","null","imgNWTK/triangle.png","imgNWTK/square.png","imgNWTK/square.png","NaN","NaN","","",""
"19961","","","bandit-task-exp6","18","534671","0.0-4.0-0.10","female","18","australia","94214","25928","imgNWTK/square.png","imgNWTK/triangle.png","imgNWTK/square.png","imgNWTK/triangle.png","noninfo","optim","2.90","","11","2","2","126","null","imgNWTK/square.png","imgNWTK/triangle.png","imgNWTK/triangle.png","NaN","NaN","","",""
"16627","","","bandit-task-exp6","19","574737","0.0-4.0-0.11","female","18","australia","94214","25928","imgNWTK/square.png","imgNWTK/triangle.png","imgNWTK/square.png","imgNWTK/triangle.png","noninfo","optim","2.90","","12","1","1","89","null","imgNWTK/triangle.png","imgNWTK/square.png","imgNWTK/square.png","NaN","NaN","","",""
"23628","","","bandit-task-exp6","20","622038","0.0-4.0-0.12","female","18","australia","94214","25928","imgNWTK/square.png","imgNWTK/triangle.png","imgNWTK/square.png","imgNWTK/triangle.png","noninfo","optim","2.90","","13","1","1","70","null","imgNWTK/triangle.png","imgNWTK/square.png","imgNWTK/square.png","NaN","NaN","","",""
"25728","","","bandit-task-exp6","21","671856","0.0-4.0-0.13","female","18","australia","94214","25928","imgNWTK/square.png","imgNWTK/triangle.png","imgNWTK/square.png","imgNWTK/triangle.png","noninfo","optim","2.90","","14","2","1","0","null","imgNWTK/square.png","imgNWTK/triangle.png","imgNWTK/triangle.png","NaN","NaN","","",""
"2294","","","bandit-task-exp6","22","697306","0.0-4.0-0.14","female","18","australia","94214","25928","imgNWTK/square.png","imgNWTK/triangle.png","imgNWTK/square.png","imgNWTK/triangle.png","noninfo","optim","2.90","","15","1","1","83","null","imgNWTK/square.png","imgNWTK/triangle.png","imgNWTK/square.png","NaN","NaN","","",""
"null","<p><b> Congratulations, you have finished this block. </b> </p><p>Please take a short break before moving onto the next block.</p><p>The next block will start after a 15 second break.</p><b>Remember, the point rewards are the same between blocks","","html-keyboard-response","23","712314","0.0-5.0","female","18","australia","94214","25928","imgNWTK/square.png","imgNWTK/triangle.png","imgNWTK/square.png","imgNWTK/triangle.png","noninfo","optim","2.90","","","","","","","","","","","","null","",""
"4587","","","bandit-task-exp6","24","757609","0.0-6.0-0.0","female","18","australia","94214","25928","imgNWTK/square.png","imgNWTK/triangle.png","imgNWTK/square.png","imgNWTK/triangle.png","noninfo","optim","2.90","","16","1","2","0","null","imgNWTK/square.png","imgNWTK/triangle.png","imgNWTK/square.png","NaN","NaN","","",""
"30711","","","bandit-task-exp6","25","811109","0.0-6.0-0.1","female","18","australia","94214","25928","imgNWTK/square.png","imgNWTK/triangle.png","imgNWTK/square.png","imgNWTK/triangle.png","noninfo","optim","2.90","","17","1","1","75","null","imgNWTK/triangle.png","imgNWTK/square.png","imgNWTK/square.png","NaN","NaN","","",""
"28630","","","bandit-task-exp6","26","870494","0.0-6.0-0.2","female","18","australia","94214","25928","imgNWTK/square.png","imgNWTK/triangle.png","imgNWTK/square.png","imgNWTK/triangle.png","noninfo","optim","2.90","","18","2","1","0","null","imgNWTK/triangle.png","imgNWTK/square.png","imgNWTK/triangle.png","NaN","NaN","","",""
"23329","","","bandit-task-exp6","27","915829","0.0-6.0-0.3","female","18","australia","94214","25928","imgNWTK/square.png","imgNWTK/triangle.png","imgNWTK/square.png","imgNWTK/triangle.png","noninfo","optim","2.90","","19","1","1","84","null","imgNWTK/triangle.png","imgNWTK/square.png","imgNWTK/square.png","NaN","NaN","","",""
"16612","","","bandit-task-exp6","28","954632","0.0-6.0-0.4","female","18","australia","94214","25928","imgNWTK/square.png","imgNWTK/triangle.png","imgNWTK/square.png","imgNWTK/triangle.png","noninfo","optim","2.90","","20","2","1","0","null","imgNWTK/square.png","imgNWTK/triangle.png","imgNWTK/triangle.png","NaN","NaN","","",""
"23027","","","bandit-task-exp6","29","1009964","0.0-6.0-0.5","female","18","australia","94214","25928","imgNWTK/square.png","imgNWTK/triangle.png","imgNWTK/square.png","imgNWTK/triangle.png","noninfo","optim","2.90","","21","1","1","70","null","imgNWTK/square.png","imgNWTK/triangle.png","imgNWTK/square.png","NaN","NaN","","",""
"13296","","","bandit-task-exp6","30","1046450","0.0-6.0-0.6","female","18","australia","94214","25928","imgNWTK/square.png","imgNWTK/triangle.png","imgNWTK/square.png","imgNWTK/triangle.png","noninfo","optim","2.90","","22","1","2","0","null","imgNWTK/triangle.png","imgNWTK/square.png","imgNWTK/square.png","NaN","NaN","","",""
"24295","","","bandit-task-exp6","31","1106983","0.0-6.0-0.7","female","18","australia","94214","25928","imgNWTK/square.png","imgNWTK/triangle.png","imgNWTK/square.png","imgNWTK/triangle.png","noninfo","optim","2.90","","23","2","1","0","null","imgNWTK/triangle.png","imgNWTK/square.png","imgNWTK/triangle.png","NaN","NaN","","",""
"11030","","","bandit-task-exp6","32","1148101","0.0-6.0-0.8","female","18","australia","94214","25928","imgNWTK/square.png","imgNWTK/triangle.png","imgNWTK/square.png","imgNWTK/triangle.png","noninfo","optim","2.90","","24","1","2","0","null","imgNWTK/triangle.png","imgNWTK/square.png","imgNWTK/square.png","NaN","NaN","","",""
"21431","","","bandit-task-exp6","33","1192387","0.0-6.0-0.9","female","18","australia","94214","25928","imgNWTK/square.png","imgNWTK/triangle.png","imgNWTK/square.png","imgNWTK/triangle.png","noninfo","optim","2.90","","25","2","1","0","null","imgNWTK/triangle.png","imgNWTK/square.png","imgNWTK/triangle.png","NaN","NaN","","",""
"27096","","","bandit-task-exp6","34","1245706","0.0-6.0-0.10","female","18","australia","94214","25928","imgNWTK/square.png","imgNWTK/triangle.png","imgNWTK/square.png","imgNWTK/triangle.png","noninfo","optim","2.90","","26","2","2","121","null","imgNWTK/triangle.png","imgNWTK/square.png","imgNWTK/triangle.png","NaN","NaN","","",""
"19176","","","bandit-task-exp6","35","1293757","0.0-6.0-0.11","female","18","australia","94214","25928","imgNWTK/square.png","imgNWTK/triangle.png","imgNWTK/square.png","imgNWTK/triangle.png","noninfo","optim","2.90","","27","2","2","120","null","imgNWTK/square.png","imgNWTK/triangle.png","imgNWTK/triangle.png","NaN","NaN","","",""
"22145","","","bandit-task-exp6","36","1338958","0.0-6.0-0.12","female","18","australia","94214","25928","imgNWTK/square.png","imgNWTK/triangle.png","imgNWTK/square.png","imgNWTK/triangle.png","noninfo","optim","2.90","","28","2","1","0","null","imgNWTK/square.png","imgNWTK/triangle.png","imgNWTK/triangle.png","NaN","NaN","","",""
"20794","","","bandit-task-exp6","37","1391591","0.0-6.0-0.13","female","18","australia","94214","25928","imgNWTK/square.png","imgNWTK/triangle.png","imgNWTK/square.png","imgNWTK/triangle.png","noninfo","optim","2.90","","29","1","1","82","null","imgNWTK/triangle.png","imgNWTK/square.png","imgNWTK/square.png","NaN","NaN","","",""
"15079","","","bandit-task-exp6","38","1439724","0.0-6.0-0.14","female","18","australia","94214","25928","imgNWTK/square.png","imgNWTK/triangle.png","imgNWTK/square.png","imgNWTK/triangle.png","noninfo","optim","2.90","","30","1","1","74","null","imgNWTK/triangle.png","imgNWTK/square.png","imgNWTK/square.png","NaN","NaN","","",""
"null","<p><b> Congratulations, you have finished this block. </b> </p><p>Please take a short break before moving onto the next block.</p><p>The next block will start after a 15 second break.</p><b>Remember, the point rewards are the same between blocks","","html-keyboard-response","39","1454724","0.0-7.0","female","18","australia","94214","25928","imgNWTK/square.png","imgNWTK/triangle.png","imgNWTK/square.png","imgNWTK/triangle.png","noninfo","optim","2.90","","","","","","","","","","","","null","",""
"11870","","","bandit-task-exp6","40","1489882","0.0-8.0-0.0","female","18","australia","94214","25928","imgNWTK/square.png","imgNWTK/triangle.png","imgNWTK/square.png","imgNWTK/triangle.png","noninfo","optim","2.90","","31","1","2","0","null","imgNWTK/triangle.png","imgNWTK/square.png","imgNWTK/square.png","NaN","NaN","","",""
"27111","","","bandit-task-exp6","41","1539165","0.0-8.0-0.1","female","18","australia","94214","25928","imgNWTK/square.png","imgNWTK/triangle.png","imgNWTK/square.png","imgNWTK/triangle.png","noninfo","optim","2.90","","32","2","2","121","null","imgNWTK/triangle.png","imgNWTK/square.png","imgNWTK/triangle.png","NaN","NaN","","",""
"21212","","","bandit-task-exp6","42","1582799","0.0-8.0-0.2","female","18","australia","94214","25928","imgNWTK/square.png","imgNWTK/triangle.png","imgNWTK/square.png","imgNWTK/triangle.png","noninfo","optim","2.90","","33","2","1","0","null","imgNWTK/triangle.png","imgNWTK/square.png","imgNWTK/triangle.png","NaN","NaN","","",""
"25361","","","bandit-task-exp6","43","1631299","0.0-8.0-0.3","female","18","australia","94214","25928","imgNWTK/square.png","imgNWTK/triangle.png","imgNWTK/square.png","imgNWTK/triangle.png","noninfo","optim","2.90","","34","1","1","70","null","imgNWTK/square.png","imgNWTK/triangle.png","imgNWTK/square.png","NaN","NaN","","",""
"26828","","","bandit-task-exp6","44","1682416","0.0-8.0-0.4","female","18","australia","94214","25928","imgNWTK/square.png","imgNWTK/triangle.png","imgNWTK/square.png","imgNWTK/triangle.png","noninfo","optim","2.90","","35","2","1","0","null","imgNWTK/triangle.png","imgNWTK/square.png","imgNWTK/triangle.png","NaN","NaN","","",""
"24845","","","bandit-task-exp6","45","1729700","0.0-8.0-0.5","female","18","australia","94214","25928","imgNWTK/square.png","imgNWTK/triangle.png","imgNWTK/square.png","imgNWTK/triangle.png","noninfo","optim","2.90","","36","1","2","0","null","imgNWTK/triangle.png","imgNWTK/square.png","imgNWTK/square.png","NaN","NaN","","",""
"6811","","","bandit-task-exp6","46","1758884","0.0-8.0-0.6","female","18","australia","94214","25928","imgNWTK/square.png","imgNWTK/triangle.png","imgNWTK/square.png","imgNWTK/triangle.png","noninfo","optim","2.90","","37","1","1","89","null","imgNWTK/square.png","imgNWTK/triangle.png","imgNWTK/square.png","NaN","NaN","","",""
"1078","","","bandit-task-exp6","47","1782501","0.0-8.0-0.7","female","18","australia","94214","25928","imgNWTK/square.png","imgNWTK/triangle.png","imgNWTK/square.png","imgNWTK/triangle.png","noninfo","optim","2.90","","38","1","2","0","null","imgNWTK/triangle.png","imgNWTK/square.png","imgNWTK/square.png","NaN","NaN","","",""
"2511","","","bandit-task-exp6","48","1807600","0.0-8.0-0.8","female","18","australia","94214","25928","imgNWTK/square.png","imgNWTK/triangle.png","imgNWTK/square.png","imgNWTK/triangle.png","noninfo","optim","2.90","","39","2","1","0","null","imgNWTK/square.png","imgNWTK/triangle.png","imgNWTK/triangle.png","NaN","NaN","","",""
"2045","","","bandit-task-exp6","49","1832800","0.0-8.0-0.9","female","18","australia","94214","25928","imgNWTK/square.png","imgNWTK/triangle.png","imgNWTK/square.png","imgNWTK/triangle.png","noninfo","optim","2.90","","40","1","1","73","null","imgNWTK/square.png","imgNWTK/triangle.png","imgNWTK/square.png","NaN","NaN","","",""
"18813","","","bandit-task-exp6","50","1908517","0.0-8.0-0.10","female","18","australia","94214","25928","imgNWTK/square.png","imgNWTK/triangle.png","imgNWTK/square.png","imgNWTK/triangle.png","noninfo","optim","2.90","","41","1","1","75","null","imgNWTK/square.png","imgNWTK/triangle.png","imgNWTK/square.png","NaN","NaN","","",""
"3779","","","bandit-task-exp6","51","1937367","0.0-8.0-0.11","female","18","australia","94214","25928","imgNWTK/square.png","imgNWTK/triangle.png","imgNWTK/square.png","imgNWTK/triangle.png","noninfo","optim","2.90","","42","1","1","89","null","imgNWTK/square.png","imgNWTK/triangle.png","imgNWTK/square.png","NaN","NaN","","",""
"1429","","","bandit-task-exp6","52","1960785","0.0-8.0-0.12","female","18","australia","94214","25928","imgNWTK/square.png","imgNWTK/triangle.png","imgNWTK/square.png","imgNWTK/triangle.png","noninfo","optim","2.90","","43","1","1","82","null","imgNWTK/square.png","imgNWTK/triangle.png","imgNWTK/square.png","NaN","NaN","","",""
"895","","","bandit-task-exp6","53","1987101","0.0-8.0-0.13","female","18","australia","94214","25928","imgNWTK/square.png","imgNWTK/triangle.png","imgNWTK/square.png","imgNWTK/triangle.png","noninfo","optim","2.90","","44","2","1","0","null","imgNWTK/triangle.png","imgNWTK/square.png","imgNWTK/triangle.png","NaN","NaN","","",""
"1113","","","bandit-task-exp6","54","2017102","0.0-8.0-0.14","female","18","australia","94214","25928","imgNWTK/square.png","imgNWTK/triangle.png","imgNWTK/square.png","imgNWTK/triangle.png","noninfo","optim","2.90","","45","1","1","74","null","imgNWTK/triangle.png","imgNWTK/square.png","imgNWTK/square.png","NaN","NaN","","",""
"null","<p><b> Congratulations, you have finished this block. </b> </p><p>Please take a short break before moving onto the next block.</p><p>The next block will start after a 15 second break.</p><b>Remember, the point rewards are the same between blocks","","html-keyboard-response","55","2032108","0.0-9.0","female","18","australia","94214","25928","imgNWTK/square.png","imgNWTK/triangle.png","imgNWTK/square.png","imgNWTK/triangle.png","noninfo","optim","2.90","","","","","","","","","","","","null","",""
"19387","","","bandit-task-exp6","56","2074185","0.0-10.0-0.0","female","18","australia","94214","25928","imgNWTK/square.png","imgNWTK/triangle.png","imgNWTK/square.png","imgNWTK/triangle.png","noninfo","optim","2.90","","46","2","1","0","null","imgNWTK/square.png","imgNWTK/triangle.png","imgNWTK/triangle.png","85","170","","",""
"7728","","","bandit-task-exp6","57","2104636","0.0-10.0-0.1","female","18","australia","94214","25928","imgNWTK/square.png","imgNWTK/triangle.png","imgNWTK/square.png","imgNWTK/triangle.png","noninfo","optim","2.90","","47","1","1","78","null","imgNWTK/triangle.png","imgNWTK/square.png","imgNWTK/square.png","900","1000","","",""
"11645","","","bandit-task-exp6","58","2140869","0.0-10.0-0.2","female","18","australia","94214","25928","imgNWTK/square.png","imgNWTK/triangle.png","imgNWTK/square.png","imgNWTK/triangle.png","noninfo","optim","2.90","","48","2","2","121","null","imgNWTK/triangle.png","imgNWTK/square.png","imgNWTK/triangle.png","700000000","202000","","",""
"8311","","","bandit-task-exp6","59","2173554","0.0-10.0-0.3","female","18","australia","94214","25928","imgNWTK/square.png","imgNWTK/triangle.png","imgNWTK/square.png","imgNWTK/triangle.png","noninfo","optim","2.90","","49","1","1","73","null","imgNWTK/triangle.png","imgNWTK/square.png","imgNWTK/square.png","170","90","","",""
"5627","","","bandit-task-exp6","60","2211886","0.0-10.0-0.4","female","18","australia","94214","25928","imgNWTK/square.png","imgNWTK/triangle.png","imgNWTK/square.png","imgNWTK/triangle.png","noninfo","optim","2.90","","50","1","1","73","null","imgNWTK/triangle.png","imgNWTK/square.png","imgNWTK/square.png","200","90","","",""
"8729","","","bandit-task-exp6","61","2248187","0.0-10.0-0.5","female","18","australia","94214","25928","imgNWTK/square.png","imgNWTK/triangle.png","imgNWTK/square.png","imgNWTK/triangle.png","noninfo","optim","2.90","","51","2","1","0","null","imgNWTK/triangle.png","imgNWTK/square.png","imgNWTK/triangle.png","200","90","","",""
"6610","","","bandit-task-exp6","62","2283720","0.0-10.0-0.6","female","18","australia","94214","25928","imgNWTK/square.png","imgNWTK/triangle.png","imgNWTK/square.png","imgNWTK/triangle.png","noninfo","optim","2.90","","52","1","2","0","null","imgNWTK/square.png","imgNWTK/triangle.png","imgNWTK/square.png","100","200","","",""
"10277","","","bandit-task-exp6","63","2317587","0.0-10.0-0.7","female","18","australia","94214","25928","imgNWTK/square.png","imgNWTK/triangle.png","imgNWTK/square.png","imgNWTK/triangle.png","noninfo","optim","2.90","","53","2","1","0","null","imgNWTK/square.png","imgNWTK/triangle.png","imgNWTK/triangle.png","200","90","","",""
"15261","","","bandit-task-exp6","64","2360121","0.0-10.0-0.8","female","18","australia","94214","25928","imgNWTK/square.png","imgNWTK/triangle.png","imgNWTK/square.png","imgNWTK/triangle.png","noninfo","optim","2.90","","54","2","2","110","null","imgNWTK/square.png","imgNWTK/triangle.png","imgNWTK/triangle.png","90","170","","",""
"24178","","","bandit-task-exp6","65","2407804","0.0-10.0-0.9","female","18","australia","94214","25928","imgNWTK/square.png","imgNWTK/triangle.png","imgNWTK/square.png","imgNWTK/triangle.png","noninfo","optim","2.90","","55","2","1","0","null","imgNWTK/square.png","imgNWTK/triangle.png","imgNWTK/triangle.png","90","190","","",""
"23812","","","bandit-task-exp6","66","2454904","0.0-10.0-0.10","female","18","australia","94214","25928","imgNWTK/square.png","imgNWTK/triangle.png","imgNWTK/square.png","imgNWTK/triangle.png","noninfo","optim","2.90","","56","1","2","0","null","imgNWTK/triangle.png","imgNWTK/square.png","imgNWTK/square.png","190","90","","",""
"13628","","","bandit-task-exp6","67","2494089","0.0-10.0-0.11","female","18","australia","94214","25928","imgNWTK/square.png","imgNWTK/triangle.png","imgNWTK/square.png","imgNWTK/triangle.png","noninfo","optim","2.90","","57","2","2","125","null","imgNWTK/triangle.png","imgNWTK/square.png","imgNWTK/triangle.png","200","90","","",""
"5978","","","bandit-task-exp6","68","2525821","0.0-10.0-0.12","female","18","australia","94214","25928","imgNWTK/square.png","imgNWTK/triangle.png","imgNWTK/square.png","imgNWTK/triangle.png","noninfo","optim","2.90","","58","2","1","0","null","imgNWTK/triangle.png","imgNWTK/square.png","imgNWTK/triangle.png","210","90","","",""
"6878","","","bandit-task-exp6","69","2564622","0.0-10.0-0.13","female","18","australia","94214","25928","imgNWTK/square.png","imgNWTK/triangle.png","imgNWTK/square.png","imgNWTK/triangle.png","noninfo","optim","2.90","","59","1","2","0","null","imgNWTK/square.png","imgNWTK/triangle.png","imgNWTK/square.png","100","230","","",""
"10060","","","bandit-task-exp6","70","2597406","0.0-10.0-0.14","female","18","australia","94214","25928","imgNWTK/square.png","imgNWTK/triangle.png","imgNWTK/square.png","imgNWTK/triangle.png","noninfo","optim","2.90","","60","1","1","87","null","imgNWTK/triangle.png","imgNWTK/square.png","imgNWTK/square.png","170","80","","",""
"3478","<p> Congratulations, you have finished the main part of the experiment. </p><p>Before you finish, we have a few short questions about the options and outcomes you saw in the task.</p>","0","html-button-response","71","2600887","0.0-11.0","female","18","australia","94214","25928","imgNWTK/square.png","imgNWTK/triangle.png","imgNWTK/square.png","imgNWTK/triangle.png","noninfo","optim","2.90","","","","","","","","","","","","","",""
"12316","<p><b>Now, imagine that you clicked on the below button for another 10 trials (this includes <i> BOTH WIN and NO-WIN trials</i>).</p> <img src= 'imgNWTK/square.png'></img></br></br> <p><b>Please type the reward (number of points) you would expect to receive on every trial.</br> Click start to begin.</p>","0","html-button-response","72","2613206","0.0-12.0","female","18","australia","94214","25928","imgNWTK/square.png","imgNWTK/triangle.png","imgNWTK/square.png","imgNWTK/triangle.png","noninfo","optim","2.90","","","","","","","","","","","","","",""
"5595.400000095367","","","survey-number","73","2618806","0.0-13.0-0.0","female","18","australia","94214","25928","imgNWTK/square.png","imgNWTK/triangle.png","imgNWTK/square.png","imgNWTK/triangle.png","noninfo","optim","2.90","{""undefined"":""84""}","","","","","","","","","","","","imgNWTK/square.png",""
"3528.2999999523163","","","survey-number","74","2622339","0.0-13.0-0.1","female","18","australia","94214","25928","imgNWTK/square.png","imgNWTK/triangle.png","imgNWTK/square.png","imgNWTK/triangle.png","noninfo","optim","2.90","{""undefined"":""76""}","","","","","","","","","","","","imgNWTK/square.png",""
"2079.1999999284744","","","survey-number","75","2624423","0.0-13.0-0.2","female","18","australia","94214","25928","imgNWTK/square.png","imgNWTK/triangle.png","imgNWTK/square.png","imgNWTK/triangle.png","noninfo","optim","2.90","{""undefined"":""89""}","","","","","","","","","","","","imgNWTK/square.png",""
"2246","","","survey-number","76","2626672","0.0-13.0-0.3","female","18","australia","94214","25928","imgNWTK/square.png","imgNWTK/triangle.png","imgNWTK/square.png","imgNWTK/triangle.png","noninfo","optim","2.90","{""undefined"":""84""}","","","","","","","","","","","","imgNWTK/square.png",""
"1646.1999999284744","","","survey-number","77","2628323","0.0-13.0-0.4","female","18","australia","94214","25928","imgNWTK/square.png","imgNWTK/triangle.png","imgNWTK/square.png","imgNWTK/triangle.png","noninfo","optim","2.90","{""undefined"":""90""}","","","","","","","","","","","","imgNWTK/square.png",""
"2661.899999976158","","","survey-number","78","2630989","0.0-13.0-0.5","female","18","australia","94214","25928","imgNWTK/square.png","imgNWTK/triangle.png","imgNWTK/square.png","imgNWTK/triangle.png","noninfo","optim","2.90","{""undefined"":""78""}","","","","","","","","","","","","imgNWTK/square.png",""
"1846.6000000238419","","","survey-number","79","2632840","0.0-13.0-0.6","female","18","australia","94214","25928","imgNWTK/square.png","imgNWTK/triangle.png","imgNWTK/square.png","imgNWTK/triangle.png","noninfo","optim","2.90","{""undefined"":""87""}","","","","","","","","","","","","imgNWTK/square.png",""
"1679.6000000238419","","","survey-number","80","2634523","0.0-13.0-0.7","female","18","australia","94214","25928","imgNWTK/square.png","imgNWTK/triangle.png","imgNWTK/square.png","imgNWTK/triangle.png","noninfo","optim","2.90","{""undefined"":""89""}","","","","","","","","","","","","imgNWTK/square.png",""
"2728.5","","","survey-number","81","2637255","0.0-13.0-0.8","female","18","australia","94214","25928","imgNWTK/square.png","imgNWTK/triangle.png","imgNWTK/square.png","imgNWTK/triangle.png","noninfo","optim","2.90","{""undefined"":""84""}","","","","","","","","","","","","imgNWTK/square.png",""
"2296.899999976158","","","survey-number","82","2639556","0.0-13.0-0.9","female","18","australia","94214","25928","imgNWTK/square.png","imgNWTK/triangle.png","imgNWTK/square.png","imgNWTK/triangle.png","noninfo","optim","2.90","{""undefined"":""84""}","","","","","","","","","","","","imgNWTK/square.png",""
"2613","<p><b>Imagine that you clicked on the below button for another 10 trials (this includes <i> both WIN and NO-WIN trials</i>).</p> <img src= 'imgNWTK/triangle.png'></img></br></br> <p><b>Please type the reward (number of points) you would expect to receive on every trial.</br> Click start to begin.</p>","0","html-button-response","83","2642172","0.0-14.0","female","18","australia","94214","25928","imgNWTK/square.png","imgNWTK/triangle.png","imgNWTK/square.png","imgNWTK/triangle.png","noninfo","optim","2.90","","","","","","","","","","","","","",""
"2562.6999999284744","","","survey-number","84","2644740","0.0-15.0-0.0","female","18","australia","94214","25928","imgNWTK/square.png","imgNWTK/triangle.png","imgNWTK/square.png","imgNWTK/triangle.png","noninfo","optim","2.90","{""undefined"":""121""}","","","","","","","","","","","","imgNWTK/triangle.png",""
"1979","","","survey-number","85","2646722","0.0-15.0-0.1","female","18","australia","94214","25928","imgNWTK/square.png","imgNWTK/triangle.png","imgNWTK/square.png","imgNWTK/triangle.png","noninfo","optim","2.90","{""undefined"":""134""}","","","","","","","","","","","","imgNWTK/triangle.png",""
"2663","","","survey-number","86","2649389","0.0-15.0-0.2","female","18","australia","94214","25928","imgNWTK/square.png","imgNWTK/triangle.png","imgNWTK/square.png","imgNWTK/triangle.png","noninfo","optim","2.90","{""undefined"":""178""}","","","","","","","","","","","","imgNWTK/triangle.png",""
"2195.6999999284744","","","survey-number","87","2651590","0.0-15.0-0.3","female","18","australia","94214","25928","imgNWTK/square.png","imgNWTK/triangle.png","imgNWTK/square.png","imgNWTK/triangle.png","noninfo","optim","2.90","{""undefined"":""176""}","","","","","","","","","","","","imgNWTK/triangle.png",""
"3296.1999999284744","","","survey-number","88","2654890","0.0-15.0-0.4","female","18","australia","94214","25928","imgNWTK/square.png","imgNWTK/triangle.png","imgNWTK/square.png","imgNWTK/triangle.png","noninfo","optim","2.90","{""undefined"":""146""}","","","","","","","","","","","","imgNWTK/triangle.png",""
"2812.7000000476837","","","survey-number","89","2657707","0.0-15.0-0.5","female","18","australia","94214","25928","imgNWTK/square.png","imgNWTK/triangle.png","imgNWTK/square.png","imgNWTK/triangle.png","noninfo","optim","2.90","{""undefined"":""178""}","","","","","","","","","","","","imgNWTK/triangle.png",""
"4444.5","","","survey-number","90","2662156","0.0-15.0-0.6","female","18","australia","94214","25928","imgNWTK/square.png","imgNWTK/triangle.png","imgNWTK/square.png","imgNWTK/triangle.png","noninfo","optim","2.90","{""undefined"":""121""}","","","","","","","","","","","","imgNWTK/triangle.png",""
"2913.100000023842","","","survey-number","91","2665073","0.0-15.0-0.7","female","18","australia","94214","25928","imgNWTK/square.png","imgNWTK/triangle.png","imgNWTK/square.png","imgNWTK/triangle.png","noninfo","optim","2.90","{""undefined"":""189""}","","","","","","","","","","","","imgNWTK/triangle.png",""
"2228.8000000715256","","","survey-number","92","2667305","0.0-15.0-0.8","female","18","australia","94214","25928","imgNWTK/square.png","imgNWTK/triangle.png","imgNWTK/square.png","imgNWTK/triangle.png","noninfo","optim","2.90","{""undefined"":""167""}","","","","","","","","","","","","imgNWTK/triangle.png",""
"2196","","","survey-number","93","2669506","0.0-15.0-0.9","female","18","australia","94214","25928","imgNWTK/square.png","imgNWTK/triangle.png","imgNWTK/square.png","imgNWTK/triangle.png","noninfo","optim","2.90","{""undefined"":""143""}","","","","","","","","","","","","imgNWTK/triangle.png",""
"25477.800000071526","","","survey-number","94","2694990","0.0-16.0","female","18","australia","94214","25928","imgNWTK/square.png","imgNWTK/triangle.png","imgNWTK/square.png","imgNWTK/triangle.png","noninfo","optim","2.90","{""undefined"":""145""}","","","","","","","","","","","","","imgNWTK/triangle.png"
"8711.600000023842","","","survey-number","95","2703706","0.0-17.0","female","18","australia","94214","25928","imgNWTK/square.png","imgNWTK/triangle.png","imgNWTK/square.png","imgNWTK/triangle.png","noninfo","optim","2.90","{""undefined"":""80""}","","","","","","","","","","","","","imgNWTK/square.png"
"3748","<p style=""text-align:left;"">Great! We are almost at the end of the study... (Please do not close the browser window yet.)</p><p> Your final points balance is 2899, which equals to a bonus payment of $2.90. Please collect your payment from Mathews Building Room 721 (Mon-Fri 9am-5pm); please email amy.x.li@unsw.edu.au at least 24 hours prior to collection so that this is ready for you.</p><p style=""text-align:left;"">To view the debriefing form, please click <a href=""./imgNWTK/debrief_3205.pdf"" target=""_blank"">here</a> to download a copy.</p><p style=""text-align:left;"">Then, <b>please click the below button</b> to confirm that you have received your debrief and to complete the study. Upon clicking ""Finish!"", your SONA credit will be automatically assigned.</p>","0","html-button-response","96","2707456","0.0-18.0","female","18","australia","94214","25928","imgNWTK/square.png","imgNWTK/triangle.png","imgNWTK/square.png","imgNWTK/triangle.png","noninfo","optim","2.90","","","","","","","","","","","","","",""
