"rt","stimulus","button_pressed","trial_type","trial_index","time_elapsed","internal_node_id","gender","age","language","PID","sona_id","subStim","optStim","stim1","stim2","infoCond","optimCond","bonus","responses","banditTrial","choice","cue","feedback","estimateData","leftOption","rightOption","choiceName","leftInput","rightInput","key_press","postQ","singleEst"
"28306","<p>Thank you for signing up to participate in SONA Study 465! <br> During this study, please focus on the experiment and refrain from activities such as:</p>- <b>Switching to other tabs on your browser (this will be monitored via the experiment)</br> - Using your mobile phone/cell phone</br> - Communicating with others</br></br></b><p>This way, you are helping to provide data that is useful for psychological research. We thank you for your cooperation!</p>","0","html-button-response","0","28308","0.0-0.0","male","20","china","55931","25913","imgNWTK/square.png","imgNWTK/triangle.png","imgNWTK/square.png","imgNWTK/triangle.png","noninfo","sub","3.06","","","","","","","","","","","","","",""
"1118","<p>Welcome to the experiment!</p><p>You will now read some instructions about the task. Press the 'Next' button to continue. </p>","0","html-button-response","1","29427","0.0-1.0","male","20","china","55931","25913","imgNWTK/square.png","imgNWTK/triangle.png","imgNWTK/square.png","imgNWTK/triangle.png","noninfo","sub","3.06","","","","","","","","","","","","","",""
"40349","<p> On each trial throughout the experiment you will choose between two options, </br>a <b>Black Square </b> and <b> Black Triangle </b>, as seen below.</p><div><div style= 'float: left; width: 300px; margin: 10px 10px;'><img src= 'imgNWTK/square.png'></img></div><div style= 'float: right; width: 300px; margin: 10px 10px;'><img src= 'imgNWTK/triangle.png'></img></div></div><br/><br/><br/><br/><br/><br/><br/><br/><br/><br/><br/><p>Each option results in winning points or receiving 0 points.</br>There is a 50% chance of either winning or receiving 0 points.</p><p>You won't receive the outcome until after a <b> 20 second delay</b>.</p>","0","html-button-response","2","69778","0.0-2.0-0.0","male","20","china","55931","25913","imgNWTK/square.png","imgNWTK/triangle.png","imgNWTK/square.png","imgNWTK/triangle.png","noninfo","sub","3.06","","","","","","","","","","","","","",""
"54999","<img src= 'imgNWTK/NonInfoDiagram.png'></img><p>As seen above, whether you choose the square or triangle, you will receive a coloured circle after the choice. </p> <p>This circle will be on screen for 20 seconds until you win points or receive 0 points.</p><p>The coloured circle depends on which option you chose. </br> In the above example, choosing a triangle leads to a green circle and choosing the square leads to a red circle.</p>Please note: the circles in your task will be different to the above colours.</br></br>","0","html-button-response","3","124778","0.0-2.0-1.0","male","20","china","55931","25913","imgNWTK/square.png","imgNWTK/triangle.png","imgNWTK/square.png","imgNWTK/triangle.png","noninfo","sub","3.06","","","","","","","","","","","","","",""
"21436","<img src= 'cues/winTrials_noInfo.png' width = '1200'></img><p>To reiterate, 50% of the outcomes of each option will be WIN TRIALS, and the other 50% will be NO-WIN TRIALS.","0","html-button-response","4","146214","0.0-2.0-2.0","male","20","china","55931","25913","imgNWTK/square.png","imgNWTK/triangle.png","imgNWTK/square.png","imgNWTK/triangle.png","noninfo","sub","3.06","","","","","","","","","","","","","",""
"15789","<p> There will be <b>four blocks</b> in the experiment.</br>You will be given a short 15 second break between each block.</p><p><b>The points and the options will remain the same between the blocks.</b></p>The blocks are there just to give you a small break.</br></br></br></br><p>The points you earn in the task are also equal to <b> actual money</b>.</br> <b>1000 points is equal to $1 AUD</b></p><p>This is the rate you will be paid at the experiment's end.","0","html-button-response","5","162004","0.0-2.0-3.0","male","20","china","55931","25913","imgNWTK/square.png","imgNWTK/triangle.png","imgNWTK/square.png","imgNWTK/triangle.png","noninfo","sub","3.06","","","","","","","","","","","","","",""
"28218","","","survey-multi-choice","6","190224","0.0-2.0-4.0","male","20","china","55931","25913","imgNWTK/square.png","imgNWTK/triangle.png","imgNWTK/square.png","imgNWTK/triangle.png","noninfo","sub","3.06","{""Q0"":""20 Seconds"",""Q1"":""True"",""Q2"":""Differently""}","","","","","","","","","","","","",""
"2858","Unfortunately, at least one of your answers was incorrect.<p> ","0","html-button-response","7","193083","0.0-2.0-5.0-0.0","male","20","china","55931","25913","imgNWTK/square.png","imgNWTK/triangle.png","imgNWTK/square.png","imgNWTK/triangle.png","noninfo","sub","3.06","","","","","","","","","","","","","",""
"1665","<p> On each trial throughout the experiment you will choose between two options, </br>a <b>Black Square </b> and <b> Black Triangle </b>, as seen below.</p><div><div style= 'float: left; width: 300px; margin: 10px 10px;'><img src= 'imgNWTK/square.png'></img></div><div style= 'float: right; width: 300px; margin: 10px 10px;'><img src= 'imgNWTK/triangle.png'></img></div></div><br/><br/><br/><br/><br/><br/><br/><br/><br/><br/><br/><p>Each option results in winning points or receiving 0 points.</br>There is a 50% chance of either winning or receiving 0 points.</p><p>You won't receive the outcome until after a <b> 20 second delay</b>.</p>","0","html-button-response","8","194750","0.0-2.1-0.1","male","20","china","55931","25913","imgNWTK/square.png","imgNWTK/triangle.png","imgNWTK/square.png","imgNWTK/triangle.png","noninfo","sub","3.06","","","","","","","","","","","","","",""
"11951","<img src= 'imgNWTK/NonInfoDiagram.png'></img><p>As seen above, whether you choose the square or triangle, you will receive a coloured circle after the choice. </p> <p>This circle will be on screen for 20 seconds until you win points or receive 0 points.</p><p>The coloured circle depends on which option you chose. </br> In the above example, choosing a triangle leads to a green circle and choosing the square leads to a red circle.</p>Please note: the circles in your task will be different to the above colours.</br></br>","0","html-button-response","9","206702","0.0-2.1-1.1","male","20","china","55931","25913","imgNWTK/square.png","imgNWTK/triangle.png","imgNWTK/square.png","imgNWTK/triangle.png","noninfo","sub","3.06","","","","","","","","","","","","","",""
"8387","<img src= 'cues/winTrials_noInfo.png' width = '1200'></img><p>To reiterate, 50% of the outcomes of each option will be WIN TRIALS, and the other 50% will be NO-WIN TRIALS.","0","html-button-response","10","215089","0.0-2.1-2.1","male","20","china","55931","25913","imgNWTK/square.png","imgNWTK/triangle.png","imgNWTK/square.png","imgNWTK/triangle.png","noninfo","sub","3.06","","","","","","","","","","","","","",""
"1218","<p> There will be <b>four blocks</b> in the experiment.</br>You will be given a short 15 second break between each block.</p><p><b>The points and the options will remain the same between the blocks.</b></p>The blocks are there just to give you a small break.</br></br></br></br><p>The points you earn in the task are also equal to <b> actual money</b>.</br> <b>1000 points is equal to $1 AUD</b></p><p>This is the rate you will be paid at the experiment's end.","0","html-button-response","11","216308","0.0-2.1-3.1","male","20","china","55931","25913","imgNWTK/square.png","imgNWTK/triangle.png","imgNWTK/square.png","imgNWTK/triangle.png","noninfo","sub","3.06","","","","","","","","","","","","","",""
"5524","","","survey-multi-choice","12","221834","0.0-2.1-4.1","male","20","china","55931","25913","imgNWTK/square.png","imgNWTK/triangle.png","imgNWTK/square.png","imgNWTK/triangle.png","noninfo","sub","3.06","{""Q0"":""20 Seconds"",""Q1"":""True"",""Q2"":""Differently""}","","","","","","","","","","","","",""
"1184","Unfortunately, at least one of your answers was incorrect.<p> ","0","html-button-response","13","223019","0.0-2.1-5.1-0.1","male","20","china","55931","25913","imgNWTK/square.png","imgNWTK/triangle.png","imgNWTK/square.png","imgNWTK/triangle.png","noninfo","sub","3.06","","","","","","","","","","","","","",""
"2915","<p> On each trial throughout the experiment you will choose between two options, </br>a <b>Black Square </b> and <b> Black Triangle </b>, as seen below.</p><div><div style= 'float: left; width: 300px; margin: 10px 10px;'><img src= 'imgNWTK/square.png'></img></div><div style= 'float: right; width: 300px; margin: 10px 10px;'><img src= 'imgNWTK/triangle.png'></img></div></div><br/><br/><br/><br/><br/><br/><br/><br/><br/><br/><br/><p>Each option results in winning points or receiving 0 points.</br>There is a 50% chance of either winning or receiving 0 points.</p><p>You won't receive the outcome until after a <b> 20 second delay</b>.</p>","0","html-button-response","14","225935","0.0-2.2-0.2","male","20","china","55931","25913","imgNWTK/square.png","imgNWTK/triangle.png","imgNWTK/square.png","imgNWTK/triangle.png","noninfo","sub","3.06","","","","","","","","","","","","","",""
"24935","<img src= 'imgNWTK/NonInfoDiagram.png'></img><p>As seen above, whether you choose the square or triangle, you will receive a coloured circle after the choice. </p> <p>This circle will be on screen for 20 seconds until you win points or receive 0 points.</p><p>The coloured circle depends on which option you chose. </br> In the above example, choosing a triangle leads to a green circle and choosing the square leads to a red circle.</p>Please note: the circles in your task will be different to the above colours.</br></br>","0","html-button-response","15","250871","0.0-2.2-1.2","male","20","china","55931","25913","imgNWTK/square.png","imgNWTK/triangle.png","imgNWTK/square.png","imgNWTK/triangle.png","noninfo","sub","3.06","","","","","","","","","","","","","",""
"1587","<img src= 'cues/winTrials_noInfo.png' width = '1200'></img><p>To reiterate, 50% of the outcomes of each option will be WIN TRIALS, and the other 50% will be NO-WIN TRIALS.","0","html-button-response","16","252459","0.0-2.2-2.2","male","20","china","55931","25913","imgNWTK/square.png","imgNWTK/triangle.png","imgNWTK/square.png","imgNWTK/triangle.png","noninfo","sub","3.06","","","","","","","","","","","","","",""
"1713","<p> There will be <b>four blocks</b> in the experiment.</br>You will be given a short 15 second break between each block.</p><p><b>The points and the options will remain the same between the blocks.</b></p>The blocks are there just to give you a small break.</br></br></br></br><p>The points you earn in the task are also equal to <b> actual money</b>.</br> <b>1000 points is equal to $1 AUD</b></p><p>This is the rate you will be paid at the experiment's end.","0","html-button-response","17","254174","0.0-2.2-3.2","male","20","china","55931","25913","imgNWTK/square.png","imgNWTK/triangle.png","imgNWTK/square.png","imgNWTK/triangle.png","noninfo","sub","3.06","","","","","","","","","","","","","",""
"56528","","","survey-multi-choice","18","310704","0.0-2.2-4.2","male","20","china","55931","25913","imgNWTK/square.png","imgNWTK/triangle.png","imgNWTK/square.png","imgNWTK/triangle.png","noninfo","sub","3.06","{""Q0"":""20 Seconds"",""Q1"":""True"",""Q2"":""Equally""}","","","","","","","","","","","","",""
"4923","<p> Well done, all your answers were correct! <br> The experiment is about to start now. <br/> Click start to continue, or email your researcher <b>(amy.x.li@unsw.edu.au)</b> if you have any questions before starting.","0","html-button-response","19","315628","0.0-3.0","male","20","china","55931","25913","imgNWTK/square.png","imgNWTK/triangle.png","imgNWTK/square.png","imgNWTK/triangle.png","noninfo","sub","3.06","","","","","","","","","","","","","",""
"2650","","","bandit-task-exp6","20","342169","0.0-4.0-0.0","male","20","china","55931","25913","imgNWTK/square.png","imgNWTK/triangle.png","imgNWTK/square.png","imgNWTK/triangle.png","noninfo","sub","3.06","","1","2","2","88","null","imgNWTK/triangle.png","imgNWTK/square.png","imgNWTK/triangle.png","NaN","NaN","","",""
"2472","","","bandit-task-exp6","21","367273","0.0-4.0-0.1","male","20","china","55931","25913","imgNWTK/square.png","imgNWTK/triangle.png","imgNWTK/square.png","imgNWTK/triangle.png","noninfo","sub","3.06","","2","1","2","0","null","imgNWTK/triangle.png","imgNWTK/square.png","imgNWTK/square.png","NaN","NaN","","",""
"4644","","","bandit-task-exp6","22","396640","0.0-4.0-0.2","male","20","china","55931","25913","imgNWTK/square.png","imgNWTK/triangle.png","imgNWTK/square.png","imgNWTK/triangle.png","noninfo","sub","3.06","","3","1","1","125","null","imgNWTK/square.png","imgNWTK/triangle.png","imgNWTK/square.png","NaN","NaN","","",""
"3907","","","bandit-task-exp6","23","422835","0.0-4.0-0.3","male","20","china","55931","25913","imgNWTK/square.png","imgNWTK/triangle.png","imgNWTK/square.png","imgNWTK/triangle.png","noninfo","sub","3.06","","4","2","2","71","null","imgNWTK/triangle.png","imgNWTK/square.png","imgNWTK/triangle.png","NaN","NaN","","",""
"1696","","","bandit-task-exp6","24","447330","0.0-4.0-0.4","male","20","china","55931","25913","imgNWTK/square.png","imgNWTK/triangle.png","imgNWTK/square.png","imgNWTK/triangle.png","noninfo","sub","3.06","","5","2","1","0","null","imgNWTK/square.png","imgNWTK/triangle.png","imgNWTK/triangle.png","NaN","NaN","","",""
"544","","","bandit-task-exp6","25","469792","0.0-4.0-0.5","male","20","china","55931","25913","imgNWTK/square.png","imgNWTK/triangle.png","imgNWTK/square.png","imgNWTK/triangle.png","noninfo","sub","3.06","","6","1","1","121","null","imgNWTK/triangle.png","imgNWTK/square.png","imgNWTK/square.png","NaN","NaN","","",""
"479","","","bandit-task-exp6","26","496786","0.0-4.0-0.6","male","20","china","55931","25913","imgNWTK/square.png","imgNWTK/triangle.png","imgNWTK/square.png","imgNWTK/triangle.png","noninfo","sub","3.06","","7","1","1","110","null","imgNWTK/triangle.png","imgNWTK/square.png","imgNWTK/square.png","NaN","NaN","","",""
"1558","","","bandit-task-exp6","27","529906","0.0-4.0-0.7","male","20","china","55931","25913","imgNWTK/square.png","imgNWTK/triangle.png","imgNWTK/square.png","imgNWTK/triangle.png","noninfo","sub","3.06","","8","1","2","0","null","imgNWTK/square.png","imgNWTK/triangle.png","imgNWTK/square.png","NaN","NaN","","",""
"1227","","","bandit-task-exp6","28","558446","0.0-4.0-0.8","male","20","china","55931","25913","imgNWTK/square.png","imgNWTK/triangle.png","imgNWTK/square.png","imgNWTK/triangle.png","noninfo","sub","3.06","","9","2","1","0","null","imgNWTK/triangle.png","imgNWTK/square.png","imgNWTK/triangle.png","NaN","NaN","","",""
"1298","","","bandit-task-exp6","29","584956","0.0-4.0-0.9","male","20","china","55931","25913","imgNWTK/square.png","imgNWTK/triangle.png","imgNWTK/square.png","imgNWTK/triangle.png","noninfo","sub","3.06","","10","1","2","0","null","imgNWTK/square.png","imgNWTK/triangle.png","imgNWTK/square.png","NaN","NaN","","",""
"1128","","","bandit-task-exp6","30","615182","0.0-4.0-0.10","male","20","china","55931","25913","imgNWTK/square.png","imgNWTK/triangle.png","imgNWTK/square.png","imgNWTK/triangle.png","noninfo","sub","3.06","","11","2","1","0","null","imgNWTK/triangle.png","imgNWTK/square.png","imgNWTK/triangle.png","NaN","NaN","","",""
"902","","","bandit-task-exp6","31","644206","0.0-4.0-0.11","male","20","china","55931","25913","imgNWTK/square.png","imgNWTK/triangle.png","imgNWTK/square.png","imgNWTK/triangle.png","noninfo","sub","3.06","","12","1","1","117","null","imgNWTK/square.png","imgNWTK/triangle.png","imgNWTK/square.png","NaN","NaN","","",""
"999","","","bandit-task-exp6","32","673696","0.0-4.0-0.12","male","20","china","55931","25913","imgNWTK/square.png","imgNWTK/triangle.png","imgNWTK/square.png","imgNWTK/triangle.png","noninfo","sub","3.06","","13","2","1","0","null","imgNWTK/triangle.png","imgNWTK/square.png","imgNWTK/triangle.png","NaN","NaN","","",""
"1599","","","bandit-task-exp6","33","702497","0.0-4.0-0.13","male","20","china","55931","25913","imgNWTK/square.png","imgNWTK/triangle.png","imgNWTK/square.png","imgNWTK/triangle.png","noninfo","sub","3.06","","14","2","1","0","null","imgNWTK/triangle.png","imgNWTK/square.png","imgNWTK/triangle.png","NaN","NaN","","",""
"1908","","","bandit-task-exp6","34","738016","0.0-4.0-0.14","male","20","china","55931","25913","imgNWTK/square.png","imgNWTK/triangle.png","imgNWTK/square.png","imgNWTK/triangle.png","noninfo","sub","3.06","","15","2","2","79","null","imgNWTK/square.png","imgNWTK/triangle.png","imgNWTK/triangle.png","NaN","NaN","","",""
"null","<p><b> Congratulations, you have finished this block. </b> </p><p>Please take a short break before moving onto the next block.</p><p>The next block will start after a 15 second break.</p><b>Remember, the point rewards are the same between blocks","","html-keyboard-response","35","753034","0.0-5.0","male","20","china","55931","25913","imgNWTK/square.png","imgNWTK/triangle.png","imgNWTK/square.png","imgNWTK/triangle.png","noninfo","sub","3.06","","","","","","","","","","","","null","",""
"4799","","","bandit-task-exp6","36","784765","0.0-6.0-0.0","male","20","china","55931","25913","imgNWTK/square.png","imgNWTK/triangle.png","imgNWTK/square.png","imgNWTK/triangle.png","noninfo","sub","3.06","","16","2","1","0","null","imgNWTK/triangle.png","imgNWTK/square.png","imgNWTK/triangle.png","NaN","NaN","","",""
"1348","","","bandit-task-exp6","37","808175","0.0-6.0-0.1","male","20","china","55931","25913","imgNWTK/square.png","imgNWTK/triangle.png","imgNWTK/square.png","imgNWTK/triangle.png","noninfo","sub","3.06","","17","2","1","0","null","imgNWTK/square.png","imgNWTK/triangle.png","imgNWTK/triangle.png","NaN","NaN","","",""
"1068","","","bandit-task-exp6","38","838946","0.0-6.0-0.2","male","20","china","55931","25913","imgNWTK/square.png","imgNWTK/triangle.png","imgNWTK/square.png","imgNWTK/triangle.png","noninfo","sub","3.06","","18","2","2","81","null","imgNWTK/square.png","imgNWTK/triangle.png","imgNWTK/triangle.png","NaN","NaN","","",""
"938","","","bandit-task-exp6","39","865976","0.0-6.0-0.3","male","20","china","55931","25913","imgNWTK/square.png","imgNWTK/triangle.png","imgNWTK/square.png","imgNWTK/triangle.png","noninfo","sub","3.06","","19","1","2","0","null","imgNWTK/square.png","imgNWTK/triangle.png","imgNWTK/square.png","NaN","NaN","","",""
"1389","","","bandit-task-exp6","40","893016","0.0-6.0-0.4","male","20","china","55931","25913","imgNWTK/square.png","imgNWTK/triangle.png","imgNWTK/square.png","imgNWTK/triangle.png","noninfo","sub","3.06","","20","1","1","113","null","imgNWTK/triangle.png","imgNWTK/square.png","imgNWTK/square.png","NaN","NaN","","",""
"969","","","bandit-task-exp6","41","923495","0.0-6.0-0.5","male","20","china","55931","25913","imgNWTK/square.png","imgNWTK/triangle.png","imgNWTK/square.png","imgNWTK/triangle.png","noninfo","sub","3.06","","21","1","1","113","null","imgNWTK/square.png","imgNWTK/triangle.png","imgNWTK/square.png","NaN","NaN","","",""
"1028","","","bandit-task-exp6","42","950615","0.0-6.0-0.6","male","20","china","55931","25913","imgNWTK/square.png","imgNWTK/triangle.png","imgNWTK/square.png","imgNWTK/triangle.png","noninfo","sub","3.06","","22","1","2","0","null","imgNWTK/square.png","imgNWTK/triangle.png","imgNWTK/square.png","NaN","NaN","","",""
"1174","","","bandit-task-exp6","43","978383","0.0-6.0-0.7","male","20","china","55931","25913","imgNWTK/square.png","imgNWTK/triangle.png","imgNWTK/square.png","imgNWTK/triangle.png","noninfo","sub","3.06","","23","1","2","0","null","imgNWTK/square.png","imgNWTK/triangle.png","imgNWTK/square.png","NaN","NaN","","",""
"20418","","","bandit-task-exp6","44","1027799","0.0-6.0-0.8","male","20","china","55931","25913","imgNWTK/square.png","imgNWTK/triangle.png","imgNWTK/square.png","imgNWTK/triangle.png","noninfo","sub","3.06","","24","1","1","117","null","imgNWTK/square.png","imgNWTK/triangle.png","imgNWTK/square.png","NaN","NaN","","",""
"921","","","bandit-task-exp6","45","1053564","0.0-6.0-0.9","male","20","china","55931","25913","imgNWTK/square.png","imgNWTK/triangle.png","imgNWTK/square.png","imgNWTK/triangle.png","noninfo","sub","3.06","","25","1","1","126","null","imgNWTK/square.png","imgNWTK/triangle.png","imgNWTK/square.png","NaN","NaN","","",""
"1388","","","bandit-task-exp6","46","1087833","0.0-6.0-0.10","male","20","china","55931","25913","imgNWTK/square.png","imgNWTK/triangle.png","imgNWTK/square.png","imgNWTK/triangle.png","noninfo","sub","3.06","","26","2","2","86","null","imgNWTK/triangle.png","imgNWTK/square.png","imgNWTK/triangle.png","NaN","NaN","","",""
"1811","","","bandit-task-exp6","47","1121865","0.0-6.0-0.11","male","20","china","55931","25913","imgNWTK/square.png","imgNWTK/triangle.png","imgNWTK/square.png","imgNWTK/triangle.png","noninfo","sub","3.06","","27","1","1","127","null","imgNWTK/triangle.png","imgNWTK/square.png","imgNWTK/square.png","NaN","NaN","","",""
"1598","","","bandit-task-exp6","48","1154894","0.0-6.0-0.12","male","20","china","55931","25913","imgNWTK/square.png","imgNWTK/triangle.png","imgNWTK/square.png","imgNWTK/triangle.png","noninfo","sub","3.06","","28","1","2","0","null","imgNWTK/square.png","imgNWTK/triangle.png","imgNWTK/square.png","NaN","NaN","","",""
"958","","","bandit-task-exp6","49","1178085","0.0-6.0-0.13","male","20","china","55931","25913","imgNWTK/square.png","imgNWTK/triangle.png","imgNWTK/square.png","imgNWTK/triangle.png","noninfo","sub","3.06","","29","1","1","119","null","imgNWTK/square.png","imgNWTK/triangle.png","imgNWTK/square.png","NaN","NaN","","",""
"928","","","bandit-task-exp6","50","1211121","0.0-6.0-0.14","male","20","china","55931","25913","imgNWTK/square.png","imgNWTK/triangle.png","imgNWTK/square.png","imgNWTK/triangle.png","noninfo","sub","3.06","","30","1","2","0","null","imgNWTK/square.png","imgNWTK/triangle.png","imgNWTK/square.png","NaN","NaN","","",""
"null","<p><b> Congratulations, you have finished this block. </b> </p><p>Please take a short break before moving onto the next block.</p><p>The next block will start after a 15 second break.</p><b>Remember, the point rewards are the same between blocks","","html-keyboard-response","51","1226122","0.0-7.0","male","20","china","55931","25913","imgNWTK/square.png","imgNWTK/triangle.png","imgNWTK/square.png","imgNWTK/triangle.png","noninfo","sub","3.06","","","","","","","","","","","","null","",""
"31187","","","bandit-task-exp6","52","1280461","0.0-8.0-0.0","male","20","china","55931","25913","imgNWTK/square.png","imgNWTK/triangle.png","imgNWTK/square.png","imgNWTK/triangle.png","noninfo","sub","3.06","","31","1","1","119","null","imgNWTK/triangle.png","imgNWTK/square.png","imgNWTK/square.png","NaN","NaN","","",""
"6373","","","bandit-task-exp6","53","1322988","0.0-8.0-0.1","male","20","china","55931","25913","imgNWTK/square.png","imgNWTK/triangle.png","imgNWTK/square.png","imgNWTK/triangle.png","noninfo","sub","3.06","","32","1","2","0","null","imgNWTK/square.png","imgNWTK/triangle.png","imgNWTK/square.png","NaN","NaN","","",""
"13528","","","bandit-task-exp6","54","1382066","0.0-8.0-0.2","male","20","china","55931","25913","imgNWTK/square.png","imgNWTK/triangle.png","imgNWTK/square.png","imgNWTK/triangle.png","noninfo","sub","3.06","","33","1","2","0","null","imgNWTK/square.png","imgNWTK/triangle.png","imgNWTK/square.png","NaN","NaN","","",""
"545","","","bandit-task-exp6","55","1404672","0.0-8.0-0.3","male","20","china","55931","25913","imgNWTK/square.png","imgNWTK/triangle.png","imgNWTK/square.png","imgNWTK/triangle.png","noninfo","sub","3.06","","34","1","2","0","null","imgNWTK/square.png","imgNWTK/triangle.png","imgNWTK/square.png","NaN","NaN","","",""
"672","","","bandit-task-exp6","56","1427598","0.0-8.0-0.4","male","20","china","55931","25913","imgNWTK/square.png","imgNWTK/triangle.png","imgNWTK/square.png","imgNWTK/triangle.png","noninfo","sub","3.06","","35","1","2","0","null","imgNWTK/square.png","imgNWTK/triangle.png","imgNWTK/square.png","NaN","NaN","","",""
"993","","","bandit-task-exp6","57","1451559","0.0-8.0-0.5","male","20","china","55931","25913","imgNWTK/square.png","imgNWTK/triangle.png","imgNWTK/square.png","imgNWTK/triangle.png","noninfo","sub","3.06","","36","1","1","113","null","imgNWTK/square.png","imgNWTK/triangle.png","imgNWTK/square.png","NaN","NaN","","",""
"34579","","","bandit-task-exp6","58","1519880","0.0-8.0-0.6","male","20","china","55931","25913","imgNWTK/square.png","imgNWTK/triangle.png","imgNWTK/square.png","imgNWTK/triangle.png","noninfo","sub","3.06","","37","1","1","127","null","imgNWTK/square.png","imgNWTK/triangle.png","imgNWTK/square.png","NaN","NaN","","",""
"384","","","bandit-task-exp6","59","1544514","0.0-8.0-0.7","male","20","china","55931","25913","imgNWTK/square.png","imgNWTK/triangle.png","imgNWTK/square.png","imgNWTK/triangle.png","noninfo","sub","3.06","","38","1","1","128","null","imgNWTK/square.png","imgNWTK/triangle.png","imgNWTK/square.png","NaN","NaN","","",""
"32640","","","bandit-task-exp6","60","1603015","0.0-8.0-0.8","male","20","china","55931","25913","imgNWTK/square.png","imgNWTK/triangle.png","imgNWTK/square.png","imgNWTK/triangle.png","noninfo","sub","3.06","","39","2","2","77","null","imgNWTK/triangle.png","imgNWTK/square.png","imgNWTK/triangle.png","NaN","NaN","","",""
"606","","","bandit-task-exp6","61","1632364","0.0-8.0-0.9","male","20","china","55931","25913","imgNWTK/square.png","imgNWTK/triangle.png","imgNWTK/square.png","imgNWTK/triangle.png","noninfo","sub","3.06","","40","2","2","89","null","imgNWTK/triangle.png","imgNWTK/square.png","imgNWTK/triangle.png","NaN","NaN","","",""
"1183","","","bandit-task-exp6","62","1697410","0.0-8.0-0.10","male","20","china","55931","25913","imgNWTK/square.png","imgNWTK/triangle.png","imgNWTK/square.png","imgNWTK/triangle.png","noninfo","sub","3.06","","41","1","1","119","null","imgNWTK/triangle.png","imgNWTK/square.png","imgNWTK/square.png","NaN","NaN","","",""
"545","","","bandit-task-exp6","63","1739681","0.0-8.0-0.11","male","20","china","55931","25913","imgNWTK/square.png","imgNWTK/triangle.png","imgNWTK/square.png","imgNWTK/triangle.png","noninfo","sub","3.06","","42","1","1","127","null","imgNWTK/triangle.png","imgNWTK/square.png","imgNWTK/square.png","NaN","NaN","","",""
"681","","","bandit-task-exp6","64","1781650","0.0-8.0-0.12","male","20","china","55931","25913","imgNWTK/square.png","imgNWTK/triangle.png","imgNWTK/square.png","imgNWTK/triangle.png","noninfo","sub","3.06","","43","1","2","0","null","imgNWTK/square.png","imgNWTK/triangle.png","imgNWTK/square.png","NaN","NaN","","",""
"478","","","bandit-task-exp6","65","1845798","0.0-8.0-0.13","male","20","china","55931","25913","imgNWTK/square.png","imgNWTK/triangle.png","imgNWTK/square.png","imgNWTK/triangle.png","noninfo","sub","3.06","","44","1","2","0","null","imgNWTK/triangle.png","imgNWTK/square.png","imgNWTK/square.png","NaN","NaN","","",""
"481","","","bandit-task-exp6","66","1879138","0.0-8.0-0.14","male","20","china","55931","25913","imgNWTK/square.png","imgNWTK/triangle.png","imgNWTK/square.png","imgNWTK/triangle.png","noninfo","sub","3.06","","45","1","1","110","null","imgNWTK/triangle.png","imgNWTK/square.png","imgNWTK/square.png","NaN","NaN","","",""
"null","<p><b> Congratulations, you have finished this block. </b> </p><p>Please take a short break before moving onto the next block.</p><p>The next block will start after a 15 second break.</p><b>Remember, the point rewards are the same between blocks","","html-keyboard-response","67","1894906","0.0-9.0","male","20","china","55931","25913","imgNWTK/square.png","imgNWTK/triangle.png","imgNWTK/square.png","imgNWTK/triangle.png","noninfo","sub","3.06","","","","","","","","","","","","null","",""
"92045","","","bandit-task-exp6","68","2014047","0.0-10.0-0.0","male","20","china","55931","25913","imgNWTK/square.png","imgNWTK/triangle.png","imgNWTK/square.png","imgNWTK/triangle.png","noninfo","sub","3.06","","46","1","2","0","null","imgNWTK/square.png","imgNWTK/triangle.png","imgNWTK/square.png","100","0","","",""
"5949","","","bandit-task-exp6","69","2056820","0.0-10.0-0.1","male","20","china","55931","25913","imgNWTK/square.png","imgNWTK/triangle.png","imgNWTK/square.png","imgNWTK/triangle.png","noninfo","sub","3.06","","47","1","2","0","null","imgNWTK/square.png","imgNWTK/triangle.png","imgNWTK/square.png","100","0","","",""
"3988","","","bandit-task-exp6","70","2100982","0.0-10.0-0.2","male","20","china","55931","25913","imgNWTK/square.png","imgNWTK/triangle.png","imgNWTK/square.png","imgNWTK/triangle.png","noninfo","sub","3.06","","48","1","2","0","null","imgNWTK/triangle.png","imgNWTK/square.png","imgNWTK/square.png","0","100","","",""
"3954","","","bandit-task-exp6","71","2128224","0.0-10.0-0.3","male","20","china","55931","25913","imgNWTK/square.png","imgNWTK/triangle.png","imgNWTK/square.png","imgNWTK/triangle.png","noninfo","sub","3.06","","49","1","2","0","null","imgNWTK/square.png","imgNWTK/triangle.png","imgNWTK/square.png","100","0","","",""
"7167","","","bandit-task-exp6","72","2172114","0.0-10.0-0.4","male","20","china","55931","25913","imgNWTK/square.png","imgNWTK/triangle.png","imgNWTK/square.png","imgNWTK/triangle.png","noninfo","sub","3.06","","50","1","2","0","null","imgNWTK/triangle.png","imgNWTK/square.png","imgNWTK/square.png","0","100","","",""
"4116","","","bandit-task-exp6","73","2217744","0.0-10.0-0.5","male","20","china","55931","25913","imgNWTK/square.png","imgNWTK/triangle.png","imgNWTK/square.png","imgNWTK/triangle.png","noninfo","sub","3.06","","51","1","1","111","null","imgNWTK/square.png","imgNWTK/triangle.png","imgNWTK/square.png","100","6","","",""
"3874","","","bandit-task-exp6","74","2276236","0.0-10.0-0.6","male","20","china","55931","25913","imgNWTK/square.png","imgNWTK/triangle.png","imgNWTK/square.png","imgNWTK/triangle.png","noninfo","sub","3.06","","52","1","2","0","null","imgNWTK/square.png","imgNWTK/triangle.png","imgNWTK/square.png","100","0","","",""
"3677","","","bandit-task-exp6","75","2316128","0.0-10.0-0.7","male","20","china","55931","25913","imgNWTK/square.png","imgNWTK/triangle.png","imgNWTK/square.png","imgNWTK/triangle.png","noninfo","sub","3.06","","53","1","2","0","null","imgNWTK/triangle.png","imgNWTK/square.png","imgNWTK/square.png","0","100","","",""
"3475","","","bandit-task-exp6","76","2341794","0.0-10.0-0.8","male","20","china","55931","25913","imgNWTK/square.png","imgNWTK/triangle.png","imgNWTK/square.png","imgNWTK/triangle.png","noninfo","sub","3.06","","54","1","2","0","null","imgNWTK/triangle.png","imgNWTK/square.png","imgNWTK/square.png","0","100","","",""
"4643","","","bandit-task-exp6","77","2378580","0.0-10.0-0.9","male","20","china","55931","25913","imgNWTK/square.png","imgNWTK/triangle.png","imgNWTK/square.png","imgNWTK/triangle.png","noninfo","sub","3.06","","55","1","1","117","null","imgNWTK/square.png","imgNWTK/triangle.png","imgNWTK/square.png","100","0","","",""
"4675","","","bandit-task-exp6","78","2407513","0.0-10.0-0.10","male","20","china","55931","25913","imgNWTK/square.png","imgNWTK/triangle.png","imgNWTK/square.png","imgNWTK/triangle.png","noninfo","sub","3.06","","56","1","1","121","null","imgNWTK/triangle.png","imgNWTK/square.png","imgNWTK/square.png","0","100","","",""
"4557","","","bandit-task-exp6","79","2440918","0.0-10.0-0.11","male","20","china","55931","25913","imgNWTK/square.png","imgNWTK/triangle.png","imgNWTK/square.png","imgNWTK/triangle.png","noninfo","sub","3.06","","57","1","2","0","null","imgNWTK/triangle.png","imgNWTK/square.png","imgNWTK/square.png","0","100","","",""
"22597","","","bandit-task-exp6","80","2486064","0.0-10.0-0.12","male","20","china","55931","25913","imgNWTK/square.png","imgNWTK/triangle.png","imgNWTK/square.png","imgNWTK/triangle.png","noninfo","sub","3.06","","58","1","1","114","null","imgNWTK/triangle.png","imgNWTK/square.png","imgNWTK/square.png","0","100","","",""
"4501","","","bandit-task-exp6","81","2519950","0.0-10.0-0.13","male","20","china","55931","25913","imgNWTK/square.png","imgNWTK/triangle.png","imgNWTK/square.png","imgNWTK/triangle.png","noninfo","sub","3.06","","59","1","2","0","null","imgNWTK/triangle.png","imgNWTK/square.png","imgNWTK/square.png","0","100","","",""
"6069","","","bandit-task-exp6","82","2555804","0.0-10.0-0.14","male","20","china","55931","25913","imgNWTK/square.png","imgNWTK/triangle.png","imgNWTK/square.png","imgNWTK/triangle.png","noninfo","sub","3.06","","60","1","2","0","null","imgNWTK/square.png","imgNWTK/triangle.png","imgNWTK/square.png","100","0","","",""
"4109","<p> Congratulations, you have finished the main part of the experiment. </p><p>Before you finish, we have a few short questions about the options and outcomes you saw in the task.</p>","0","html-button-response","83","2559914","0.0-11.0","male","20","china","55931","25913","imgNWTK/square.png","imgNWTK/triangle.png","imgNWTK/square.png","imgNWTK/triangle.png","noninfo","sub","3.06","","","","","","","","","","","","","",""
"6962","<p><b>Now, imagine that you clicked on the below button for another 10 trials (this includes <i> BOTH WIN and NO-WIN trials</i>).</p> <img src= 'imgNWTK/triangle.png'></img></br></br> <p><b>Please type the reward (number of points) you would expect to receive on every trial.</br> Click start to begin.</p>","0","html-button-response","84","2566876","0.0-12.0","male","20","china","55931","25913","imgNWTK/square.png","imgNWTK/triangle.png","imgNWTK/square.png","imgNWTK/triangle.png","noninfo","sub","3.06","","","","","","","","","","","","","",""
"6149.199999928474","","","survey-number","85","2573028","0.0-13.0-0.0","male","20","china","55931","25913","imgNWTK/square.png","imgNWTK/triangle.png","imgNWTK/square.png","imgNWTK/triangle.png","noninfo","sub","3.06","{""undefined"":""0""}","","","","","","","","","","","","imgNWTK/triangle.png",""
"4908","","","survey-number","86","2577938","0.0-13.0-0.1","male","20","china","55931","25913","imgNWTK/square.png","imgNWTK/triangle.png","imgNWTK/square.png","imgNWTK/triangle.png","noninfo","sub","3.06","{""undefined"":""0""}","","","","","","","","","","","","imgNWTK/triangle.png",""
"943.6999999284744","","","survey-number","87","2578884","0.0-13.0-0.2","male","20","china","55931","25913","imgNWTK/square.png","imgNWTK/triangle.png","imgNWTK/square.png","imgNWTK/triangle.png","noninfo","sub","3.06","{""undefined"":""0""}","","","","","","","","","","","","imgNWTK/triangle.png",""
"734.2999999523163","","","survey-number","88","2579620","0.0-13.0-0.3","male","20","china","55931","25913","imgNWTK/square.png","imgNWTK/triangle.png","imgNWTK/square.png","imgNWTK/triangle.png","noninfo","sub","3.06","{""undefined"":""0""}","","","","","","","","","","","","imgNWTK/triangle.png",""
"454.6999999284744","","","survey-number","89","2580076","0.0-13.0-0.4","male","20","china","55931","25913","imgNWTK/square.png","imgNWTK/triangle.png","imgNWTK/square.png","imgNWTK/triangle.png","noninfo","sub","3.06","{""undefined"":""0""}","","","","","","","","","","","","imgNWTK/triangle.png",""
"304.7000000476837","","","survey-number","90","2580383","0.0-13.0-0.5","male","20","china","55931","25913","imgNWTK/square.png","imgNWTK/triangle.png","imgNWTK/square.png","imgNWTK/triangle.png","noninfo","sub","3.06","{""undefined"":""0""}","","","","","","","","","","","","imgNWTK/triangle.png",""
"222.10000002384186","","","survey-number","91","2580606","0.0-13.0-0.6","male","20","china","55931","25913","imgNWTK/square.png","imgNWTK/triangle.png","imgNWTK/square.png","imgNWTK/triangle.png","noninfo","sub","3.06","{""undefined"":""0""}","","","","","","","","","","","","imgNWTK/triangle.png",""
"189.60000002384186","","","survey-number","92","2580798","0.0-13.0-0.7","male","20","china","55931","25913","imgNWTK/square.png","imgNWTK/triangle.png","imgNWTK/square.png","imgNWTK/triangle.png","noninfo","sub","3.06","{""undefined"":""0""}","","","","","","","","","","","","imgNWTK/triangle.png",""
"190.19999992847443","","","survey-number","93","2580990","0.0-13.0-0.8","male","20","china","55931","25913","imgNWTK/square.png","imgNWTK/triangle.png","imgNWTK/square.png","imgNWTK/triangle.png","noninfo","sub","3.06","{""undefined"":""0""}","","","","","","","","","","","","imgNWTK/triangle.png",""
"189.89999997615814","","","survey-number","94","2581182","0.0-13.0-0.9","male","20","china","55931","25913","imgNWTK/square.png","imgNWTK/triangle.png","imgNWTK/square.png","imgNWTK/triangle.png","noninfo","sub","3.06","{""undefined"":""0""}","","","","","","","","","","","","imgNWTK/triangle.png",""
"191","<p><b>Imagine that you clicked on the below button for another 10 trials (this includes <i> both WIN and NO-WIN trials</i>).</p> <img src= 'imgNWTK/square.png'></img></br></br> <p><b>Please type the reward (number of points) you would expect to receive on every trial.</br> Click start to begin.</p>","0","html-button-response","95","2581373","0.0-14.0","male","20","china","55931","25913","imgNWTK/square.png","imgNWTK/triangle.png","imgNWTK/square.png","imgNWTK/triangle.png","noninfo","sub","3.06","","","","","","","","","","","","","",""
"2851.899999976158","","","survey-number","96","2584227","0.0-15.0-0.0","male","20","china","55931","25913","imgNWTK/square.png","imgNWTK/triangle.png","imgNWTK/square.png","imgNWTK/triangle.png","noninfo","sub","3.06","{""undefined"":""100""}","","","","","","","","","","","","imgNWTK/square.png",""
"2737.600000023842","","","survey-number","97","2586966","0.0-15.0-0.1","male","20","china","55931","25913","imgNWTK/square.png","imgNWTK/triangle.png","imgNWTK/square.png","imgNWTK/triangle.png","noninfo","sub","3.06","{""undefined"":""100""}","","","","","","","","","","","","imgNWTK/square.png",""
"7152","","","survey-number","98","2594120","0.0-15.0-0.2","male","20","china","55931","25913","imgNWTK/square.png","imgNWTK/triangle.png","imgNWTK/square.png","imgNWTK/triangle.png","noninfo","sub","3.06","{""undefined"":""100""}","","","","","","","","","","","","imgNWTK/square.png",""
"933.5","","","survey-number","99","2595055","0.0-15.0-0.3","male","20","china","55931","25913","imgNWTK/square.png","imgNWTK/triangle.png","imgNWTK/square.png","imgNWTK/triangle.png","noninfo","sub","3.06","{""undefined"":""100""}","","","","","","","","","","","","imgNWTK/square.png",""
"897.3999999761581","","","survey-number","100","2595954","0.0-15.0-0.4","male","20","china","55931","25913","imgNWTK/square.png","imgNWTK/triangle.png","imgNWTK/square.png","imgNWTK/triangle.png","noninfo","sub","3.06","{""undefined"":""100""}","","","","","","","","","","","","imgNWTK/square.png",""
"927.3999999761581","","","survey-number","101","2596883","0.0-15.0-0.5","male","20","china","55931","25913","imgNWTK/square.png","imgNWTK/triangle.png","imgNWTK/square.png","imgNWTK/triangle.png","noninfo","sub","3.06","{""undefined"":""100""}","","","","","","","","","","","","imgNWTK/square.png",""
"1263.2999999523163","","","survey-number","102","2598148","0.0-15.0-0.6","male","20","china","55931","25913","imgNWTK/square.png","imgNWTK/triangle.png","imgNWTK/square.png","imgNWTK/triangle.png","noninfo","sub","3.06","{""undefined"":""100""}","","","","","","","","","","","","imgNWTK/square.png",""
"3620.2000000476837","","","survey-number","103","2601770","0.0-15.0-0.7","male","20","china","55931","25913","imgNWTK/square.png","imgNWTK/triangle.png","imgNWTK/square.png","imgNWTK/triangle.png","noninfo","sub","3.06","{""undefined"":""100""}","","","","","","","","","","","","imgNWTK/square.png",""
"1176.7000000476837","","","survey-number","104","2602949","0.0-15.0-0.8","male","20","china","55931","25913","imgNWTK/square.png","imgNWTK/triangle.png","imgNWTK/square.png","imgNWTK/triangle.png","noninfo","sub","3.06","{""undefined"":""110""}","","","","","","","","","","","","imgNWTK/square.png",""
"1229.3999999761581","","","survey-number","105","2604180","0.0-15.0-0.9","male","20","china","55931","25913","imgNWTK/square.png","imgNWTK/triangle.png","imgNWTK/square.png","imgNWTK/triangle.png","noninfo","sub","3.06","{""undefined"":""100""}","","","","","","","","","","","","imgNWTK/square.png",""
"21904.5","","","survey-number","106","2626092","0.0-16.0","male","20","china","55931","25913","imgNWTK/square.png","imgNWTK/triangle.png","imgNWTK/square.png","imgNWTK/triangle.png","noninfo","sub","3.06","{""undefined"":""120""}","","","","","","","","","","","","","imgNWTK/square.png"
"2240.2000000476837","","","survey-number","107","2628334","0.0-17.0","male","20","china","55931","25913","imgNWTK/square.png","imgNWTK/triangle.png","imgNWTK/square.png","imgNWTK/triangle.png","noninfo","sub","3.06","{""undefined"":""5""}","","","","","","","","","","","","","imgNWTK/triangle.png"
"1551","<p style=""text-align:left;"">Great! We are almost at the end of the study... (Please do not close the browser window yet.)</p><p> Your final points balance is 3065, which equals to a bonus payment of $3.06. Please collect your payment from Mathews Building Room 721 (Mon-Fri 9am-5pm); please email amy.x.li@unsw.edu.au at least 24 hours prior to collection so that this is ready for you.</p><p style=""text-align:left;"">To view the debriefing form, please click <a href=""./imgNWTK/debrief_3205.pdf"" target=""_blank"">here</a> to download a copy.</p><p style=""text-align:left;"">Then, <b>please click the below button</b> to confirm that you have received your debrief and to complete the study. Upon clicking ""Finish!"", your SONA credit will be automatically assigned.</p>","0","html-button-response","108","2629886","0.0-18.0","male","20","china","55931","25913","imgNWTK/square.png","imgNWTK/triangle.png","imgNWTK/square.png","imgNWTK/triangle.png","noninfo","sub","3.06","","","","","","","","","","","","","",""
