"rt","stimulus","button_pressed","trial_type","trial_index","time_elapsed","internal_node_id","gender","age","language","PID","sona_id","subStim","optStim","stim1","stim2","infoCond","optimCond","bonus","responses","banditTrial","choice","cue","feedback","estimateData","leftOption","rightOption","choiceName","leftInput","rightInput","key_press","postQ","singleEst"
"8587","<p>Thank you for signing up to participate in SONA Study 465! <br> During this study, please focus on the experiment and refrain from activities such as:</p>- <b>Switching to other tabs on your browser (this will be monitored via the experiment)</br> - Using your mobile phone/cell phone</br> - Communicating with others</br></br></b><p>This way, you are helping to provide data that is useful for psychological research. We thank you for your cooperation!</p>","0","html-button-response","0","8590","0.0-0.0","non-binary","25","Australia","39489","24714","imgNWTK/square.png","imgNWTK/triangle.png","imgNWTK/square.png","imgNWTK/triangle.png","noninfo","sub","3.72","","","","","","","","","","","","","",""
"3315","<p>Welcome to the experiment!</p><p>You will now read some instructions about the task. Press the 'Next' button to continue. </p>","0","html-button-response","1","11908","0.0-1.0","non-binary","25","Australia","39489","24714","imgNWTK/square.png","imgNWTK/triangle.png","imgNWTK/square.png","imgNWTK/triangle.png","noninfo","sub","3.72","","","","","","","","","","","","","",""
"26750","<p> On each trial throughout the experiment you will choose between two options, </br>a <b>Black Square </b> and <b> Black Triangle </b>, as seen below.</p><div><div style= 'float: left; width: 300px; margin: 10px 10px;'><img src= 'imgNWTK/square.png'></img></div><div style= 'float: right; width: 300px; margin: 10px 10px;'><img src= 'imgNWTK/triangle.png'></img></div></div><br/><br/><br/><br/><br/><br/><br/><br/><br/><br/><br/><p>Each option results in winning points or receiving 0 points.</br>There is a 50% chance of either winning or receiving 0 points.</p><p>You won't receive the outcome until after a <b> 20 second delay</b>.</p>","0","html-button-response","2","38661","0.0-2.0-0.0","non-binary","25","Australia","39489","24714","imgNWTK/square.png","imgNWTK/triangle.png","imgNWTK/square.png","imgNWTK/triangle.png","noninfo","sub","3.72","","","","","","","","","","","","","",""
"33481","<img src= 'imgNWTK/NonInfoDiagram.png'></img><p>As seen above, whether you choose the square or triangle, you will receive a coloured circle after the choice. </p> <p>This circle will be on screen for 20 seconds until you win points or receive 0 points.</p><p>The coloured circle depends on which option you chose. </br> In the above example, choosing a triangle leads to a green circle and choosing the square leads to a red circle.</p>Please note: the circles in your task will be different to the above colours.</br></br>","0","html-button-response","3","72144","0.0-2.0-1.0","non-binary","25","Australia","39489","24714","imgNWTK/square.png","imgNWTK/triangle.png","imgNWTK/square.png","imgNWTK/triangle.png","noninfo","sub","3.72","","","","","","","","","","","","","",""
"11502","<img src= 'cues/winTrials_noInfo.png' width = '1200'></img><p>To reiterate, 50% of the outcomes of each option will be WIN TRIALS, and the other 50% will be NO-WIN TRIALS.","0","html-button-response","4","83648","0.0-2.0-2.0","non-binary","25","Australia","39489","24714","imgNWTK/square.png","imgNWTK/triangle.png","imgNWTK/square.png","imgNWTK/triangle.png","noninfo","sub","3.72","","","","","","","","","","","","","",""
"13758","<p> There will be <b>four blocks</b> in the experiment.</br>You will be given a short 15 second break between each block.</p><p><b>The points and the options will remain the same between the blocks.</b></p>The blocks are there just to give you a small break.</br></br></br></br><p>The points you earn in the task are also equal to <b> actual money</b>.</br> <b>1000 points is equal to $1 AUD</b></p><p>This is the rate you will be paid at the experiment's end.","0","html-button-response","5","97408","0.0-2.0-3.0","non-binary","25","Australia","39489","24714","imgNWTK/square.png","imgNWTK/triangle.png","imgNWTK/square.png","imgNWTK/triangle.png","noninfo","sub","3.72","","","","","","","","","","","","","",""
"13998","","","survey-multi-choice","6","111411","0.0-2.0-4.0","non-binary","25","Australia","39489","24714","imgNWTK/square.png","imgNWTK/triangle.png","imgNWTK/square.png","imgNWTK/triangle.png","noninfo","sub","3.72","{""Q0"":""20 Seconds"",""Q1"":""True"",""Q2"":""Equally""}","","","","","","","","","","","","",""
"4921","<p> Well done, all your answers were correct! <br> The experiment is about to start now. <br/> Click start to continue, or email your researcher <b>(amy.x.li@unsw.edu.au)</b> if you have any questions before starting.","0","html-button-response","7","116336","0.0-3.0","non-binary","25","Australia","39489","24714","imgNWTK/square.png","imgNWTK/triangle.png","imgNWTK/square.png","imgNWTK/triangle.png","noninfo","sub","3.72","","","","","","","","","","","","","",""
"2206","","","bandit-task-exp6","8","122072","0.0-4.0-0.0","non-binary","25","Australia","39489","24714","imgNWTK/square.png","imgNWTK/triangle.png","imgNWTK/square.png","imgNWTK/triangle.png","noninfo","sub","3.72","","1","2","2","78","null","imgNWTK/triangle.png","imgNWTK/square.png","imgNWTK/triangle.png","NaN","NaN","","",""
"1259","","","bandit-task-exp6","9","126517","0.0-4.0-0.1","non-binary","25","Australia","39489","24714","imgNWTK/square.png","imgNWTK/triangle.png","imgNWTK/square.png","imgNWTK/triangle.png","noninfo","sub","3.72","","2","2","1","0","null","imgNWTK/triangle.png","imgNWTK/square.png","imgNWTK/triangle.png","NaN","NaN","","",""
"1463","","","bandit-task-exp6","10","131001","0.0-4.0-0.2","non-binary","25","Australia","39489","24714","imgNWTK/square.png","imgNWTK/triangle.png","imgNWTK/square.png","imgNWTK/triangle.png","noninfo","sub","3.72","","3","1","2","0","null","imgNWTK/square.png","imgNWTK/triangle.png","imgNWTK/square.png","NaN","NaN","","",""
"666","","","bandit-task-exp6","11","134610","0.0-4.0-0.3","non-binary","25","Australia","39489","24714","imgNWTK/square.png","imgNWTK/triangle.png","imgNWTK/square.png","imgNWTK/triangle.png","noninfo","sub","3.72","","4","2","1","0","null","imgNWTK/square.png","imgNWTK/triangle.png","imgNWTK/triangle.png","NaN","NaN","","",""
"681","","","bandit-task-exp6","12","138408","0.0-4.0-0.4","non-binary","25","Australia","39489","24714","imgNWTK/square.png","imgNWTK/triangle.png","imgNWTK/square.png","imgNWTK/triangle.png","noninfo","sub","3.72","","5","2","2","71","null","imgNWTK/square.png","imgNWTK/triangle.png","imgNWTK/triangle.png","NaN","NaN","","",""
"842","","","bandit-task-exp6","13","142248","0.0-4.0-0.5","non-binary","25","Australia","39489","24714","imgNWTK/square.png","imgNWTK/triangle.png","imgNWTK/square.png","imgNWTK/triangle.png","noninfo","sub","3.72","","6","2","1","0","null","imgNWTK/triangle.png","imgNWTK/square.png","imgNWTK/triangle.png","NaN","NaN","","",""
"883","","","bandit-task-exp6","14","145972","0.0-4.0-0.6","non-binary","25","Australia","39489","24714","imgNWTK/square.png","imgNWTK/triangle.png","imgNWTK/square.png","imgNWTK/triangle.png","noninfo","sub","3.72","","7","2","2","83","null","imgNWTK/square.png","imgNWTK/triangle.png","imgNWTK/triangle.png","NaN","NaN","","",""
"847","","","bandit-task-exp6","15","149744","0.0-4.0-0.7","non-binary","25","Australia","39489","24714","imgNWTK/square.png","imgNWTK/triangle.png","imgNWTK/square.png","imgNWTK/triangle.png","noninfo","sub","3.72","","8","1","1","127","null","imgNWTK/triangle.png","imgNWTK/square.png","imgNWTK/square.png","NaN","NaN","","",""
"938","","","bandit-task-exp6","16","153633","0.0-4.0-0.8","non-binary","25","Australia","39489","24714","imgNWTK/square.png","imgNWTK/triangle.png","imgNWTK/square.png","imgNWTK/triangle.png","noninfo","sub","3.72","","9","2","1","0","null","imgNWTK/square.png","imgNWTK/triangle.png","imgNWTK/triangle.png","NaN","NaN","","",""
"1724","","","bandit-task-exp6","17","158273","0.0-4.0-0.9","non-binary","25","Australia","39489","24714","imgNWTK/square.png","imgNWTK/triangle.png","imgNWTK/square.png","imgNWTK/triangle.png","noninfo","sub","3.72","","10","2","1","0","null","imgNWTK/triangle.png","imgNWTK/square.png","imgNWTK/triangle.png","NaN","NaN","","",""
"1148","","","bandit-task-exp6","18","162176","0.0-4.0-0.10","non-binary","25","Australia","39489","24714","imgNWTK/square.png","imgNWTK/triangle.png","imgNWTK/square.png","imgNWTK/triangle.png","noninfo","sub","3.72","","11","2","2","87","null","imgNWTK/triangle.png","imgNWTK/square.png","imgNWTK/triangle.png","NaN","NaN","","",""
"787","","","bandit-task-exp6","19","165800","0.0-4.0-0.11","non-binary","25","Australia","39489","24714","imgNWTK/square.png","imgNWTK/triangle.png","imgNWTK/square.png","imgNWTK/triangle.png","noninfo","sub","3.72","","12","1","2","0","null","imgNWTK/triangle.png","imgNWTK/square.png","imgNWTK/square.png","NaN","NaN","","",""
"924","","","bandit-task-exp6","20","169425","0.0-4.0-0.12","non-binary","25","Australia","39489","24714","imgNWTK/square.png","imgNWTK/triangle.png","imgNWTK/square.png","imgNWTK/triangle.png","noninfo","sub","3.72","","13","1","2","0","null","imgNWTK/square.png","imgNWTK/triangle.png","imgNWTK/square.png","NaN","NaN","","",""
"804","","","bandit-task-exp6","21","173089","0.0-4.0-0.13","non-binary","25","Australia","39489","24714","imgNWTK/square.png","imgNWTK/triangle.png","imgNWTK/square.png","imgNWTK/triangle.png","noninfo","sub","3.72","","14","1","1","118","null","imgNWTK/square.png","imgNWTK/triangle.png","imgNWTK/square.png","NaN","NaN","","",""
"620","","","bandit-task-exp6","22","176153","0.0-4.0-0.14","non-binary","25","Australia","39489","24714","imgNWTK/square.png","imgNWTK/triangle.png","imgNWTK/square.png","imgNWTK/triangle.png","noninfo","sub","3.72","","15","1","1","121","null","imgNWTK/square.png","imgNWTK/triangle.png","imgNWTK/square.png","NaN","NaN","","",""
"null","<p><b> Congratulations, you have finished this block. </b> </p><p>Please take a short break before moving onto the next block.</p><p>The next block will start after a 15 second break.</p><b>Remember, the point rewards are the same between blocks","","html-keyboard-response","23","191168","0.0-5.0","non-binary","25","Australia","39489","24714","imgNWTK/square.png","imgNWTK/triangle.png","imgNWTK/square.png","imgNWTK/triangle.png","noninfo","sub","3.72","","","","","","","","","","","","null","",""
"1660","","","bandit-task-exp6","24","195985","0.0-6.0-0.0","non-binary","25","Australia","39489","24714","imgNWTK/square.png","imgNWTK/triangle.png","imgNWTK/square.png","imgNWTK/triangle.png","noninfo","sub","3.72","","16","1","2","0","null","imgNWTK/square.png","imgNWTK/triangle.png","imgNWTK/square.png","NaN","NaN","","",""
"967","","","bandit-task-exp6","25","199538","0.0-6.0-0.1","non-binary","25","Australia","39489","24714","imgNWTK/square.png","imgNWTK/triangle.png","imgNWTK/square.png","imgNWTK/triangle.png","noninfo","sub","3.72","","17","1","2","0","null","imgNWTK/square.png","imgNWTK/triangle.png","imgNWTK/square.png","NaN","NaN","","",""
"883","","","bandit-task-exp6","26","202970","0.0-6.0-0.2","non-binary","25","Australia","39489","24714","imgNWTK/square.png","imgNWTK/triangle.png","imgNWTK/square.png","imgNWTK/triangle.png","noninfo","sub","3.72","","18","1","2","0","null","imgNWTK/triangle.png","imgNWTK/square.png","imgNWTK/square.png","NaN","NaN","","",""
"1159","","","bandit-task-exp6","27","206610","0.0-6.0-0.3","non-binary","25","Australia","39489","24714","imgNWTK/square.png","imgNWTK/triangle.png","imgNWTK/square.png","imgNWTK/triangle.png","noninfo","sub","3.72","","19","1","2","0","null","imgNWTK/square.png","imgNWTK/triangle.png","imgNWTK/square.png","NaN","NaN","","",""
"634","","","bandit-task-exp6","28","210008","0.0-6.0-0.4","non-binary","25","Australia","39489","24714","imgNWTK/square.png","imgNWTK/triangle.png","imgNWTK/square.png","imgNWTK/triangle.png","noninfo","sub","3.72","","20","1","2","0","null","imgNWTK/square.png","imgNWTK/triangle.png","imgNWTK/square.png","NaN","NaN","","",""
"975","","","bandit-task-exp6","29","213933","0.0-6.0-0.5","non-binary","25","Australia","39489","24714","imgNWTK/square.png","imgNWTK/triangle.png","imgNWTK/square.png","imgNWTK/triangle.png","noninfo","sub","3.72","","21","2","1","0","null","imgNWTK/square.png","imgNWTK/triangle.png","imgNWTK/triangle.png","NaN","NaN","","",""
"523","","","bandit-task-exp6","30","217029","0.0-6.0-0.6","non-binary","25","Australia","39489","24714","imgNWTK/square.png","imgNWTK/triangle.png","imgNWTK/square.png","imgNWTK/triangle.png","noninfo","sub","3.72","","22","1","1","118","null","imgNWTK/square.png","imgNWTK/triangle.png","imgNWTK/square.png","NaN","NaN","","",""
"947","","","bandit-task-exp6","31","220480","0.0-6.0-0.7","non-binary","25","Australia","39489","24714","imgNWTK/square.png","imgNWTK/triangle.png","imgNWTK/square.png","imgNWTK/triangle.png","noninfo","sub","3.72","","23","1","1","119","null","imgNWTK/triangle.png","imgNWTK/square.png","imgNWTK/square.png","NaN","NaN","","",""
"672","","","bandit-task-exp6","32","223672","0.0-6.0-0.8","non-binary","25","Australia","39489","24714","imgNWTK/square.png","imgNWTK/triangle.png","imgNWTK/square.png","imgNWTK/triangle.png","noninfo","sub","3.72","","24","1","1","126","null","imgNWTK/square.png","imgNWTK/triangle.png","imgNWTK/square.png","NaN","NaN","","",""
"544","","","bandit-task-exp6","33","226678","0.0-6.0-0.9","non-binary","25","Australia","39489","24714","imgNWTK/square.png","imgNWTK/triangle.png","imgNWTK/square.png","imgNWTK/triangle.png","noninfo","sub","3.72","","25","1","1","117","null","imgNWTK/triangle.png","imgNWTK/square.png","imgNWTK/square.png","NaN","NaN","","",""
"727","","","bandit-task-exp6","34","229798","0.0-6.0-0.10","non-binary","25","Australia","39489","24714","imgNWTK/square.png","imgNWTK/triangle.png","imgNWTK/square.png","imgNWTK/triangle.png","noninfo","sub","3.72","","26","1","2","0","null","imgNWTK/square.png","imgNWTK/triangle.png","imgNWTK/square.png","NaN","NaN","","",""
"830","","","bandit-task-exp6","35","233068","0.0-6.0-0.11","non-binary","25","Australia","39489","24714","imgNWTK/square.png","imgNWTK/triangle.png","imgNWTK/square.png","imgNWTK/triangle.png","noninfo","sub","3.72","","27","2","1","0","null","imgNWTK/triangle.png","imgNWTK/square.png","imgNWTK/triangle.png","NaN","NaN","","",""
"532","","","bandit-task-exp6","36","236060","0.0-6.0-0.12","non-binary","25","Australia","39489","24714","imgNWTK/square.png","imgNWTK/triangle.png","imgNWTK/square.png","imgNWTK/triangle.png","noninfo","sub","3.72","","28","1","2","0","null","imgNWTK/triangle.png","imgNWTK/square.png","imgNWTK/square.png","NaN","NaN","","",""
"616","","","bandit-task-exp6","37","239184","0.0-6.0-0.13","non-binary","25","Australia","39489","24714","imgNWTK/square.png","imgNWTK/triangle.png","imgNWTK/square.png","imgNWTK/triangle.png","noninfo","sub","3.72","","29","2","1","0","null","imgNWTK/triangle.png","imgNWTK/square.png","imgNWTK/triangle.png","NaN","NaN","","",""
"533","","","bandit-task-exp6","38","242273","0.0-6.0-0.14","non-binary","25","Australia","39489","24714","imgNWTK/square.png","imgNWTK/triangle.png","imgNWTK/square.png","imgNWTK/triangle.png","noninfo","sub","3.72","","30","1","1","116","null","imgNWTK/triangle.png","imgNWTK/square.png","imgNWTK/square.png","NaN","NaN","","",""
"null","<p><b> Congratulations, you have finished this block. </b> </p><p>Please take a short break before moving onto the next block.</p><p>The next block will start after a 15 second break.</p><b>Remember, the point rewards are the same between blocks","","html-keyboard-response","39","257275","0.0-7.0","non-binary","25","Australia","39489","24714","imgNWTK/square.png","imgNWTK/triangle.png","imgNWTK/square.png","imgNWTK/triangle.png","noninfo","sub","3.72","","","","","","","","","","","","null","",""
"2089","","","bandit-task-exp6","40","262401","0.0-8.0-0.0","non-binary","25","Australia","39489","24714","imgNWTK/square.png","imgNWTK/triangle.png","imgNWTK/square.png","imgNWTK/triangle.png","noninfo","sub","3.72","","31","2","2","83","null","imgNWTK/triangle.png","imgNWTK/square.png","imgNWTK/triangle.png","NaN","NaN","","",""
"834","","","bandit-task-exp6","41","265704","0.0-8.0-0.1","non-binary","25","Australia","39489","24714","imgNWTK/square.png","imgNWTK/triangle.png","imgNWTK/square.png","imgNWTK/triangle.png","noninfo","sub","3.72","","32","1","1","115","null","imgNWTK/triangle.png","imgNWTK/square.png","imgNWTK/square.png","NaN","NaN","","",""
"1111","","","bandit-task-exp6","42","269329","0.0-8.0-0.2","non-binary","25","Australia","39489","24714","imgNWTK/square.png","imgNWTK/triangle.png","imgNWTK/square.png","imgNWTK/triangle.png","noninfo","sub","3.72","","33","2","2","70","null","imgNWTK/square.png","imgNWTK/triangle.png","imgNWTK/triangle.png","NaN","NaN","","",""
"1305","","","bandit-task-exp6","43","273132","0.0-8.0-0.3","non-binary","25","Australia","39489","24714","imgNWTK/square.png","imgNWTK/triangle.png","imgNWTK/square.png","imgNWTK/triangle.png","noninfo","sub","3.72","","34","1","1","124","null","imgNWTK/triangle.png","imgNWTK/square.png","imgNWTK/square.png","NaN","NaN","","",""
"828","","","bandit-task-exp6","44","276413","0.0-8.0-0.4","non-binary","25","Australia","39489","24714","imgNWTK/square.png","imgNWTK/triangle.png","imgNWTK/square.png","imgNWTK/triangle.png","noninfo","sub","3.72","","35","2","1","0","null","imgNWTK/square.png","imgNWTK/triangle.png","imgNWTK/triangle.png","NaN","NaN","","",""
"1468","","","bandit-task-exp6","45","280437","0.0-8.0-0.5","non-binary","25","Australia","39489","24714","imgNWTK/square.png","imgNWTK/triangle.png","imgNWTK/square.png","imgNWTK/triangle.png","noninfo","sub","3.72","","36","2","2","84","null","imgNWTK/triangle.png","imgNWTK/square.png","imgNWTK/triangle.png","NaN","NaN","","",""
"628","","","bandit-task-exp6","46","283716","0.0-8.0-0.6","non-binary","25","Australia","39489","24714","imgNWTK/square.png","imgNWTK/triangle.png","imgNWTK/square.png","imgNWTK/triangle.png","noninfo","sub","3.72","","37","1","1","116","null","imgNWTK/triangle.png","imgNWTK/square.png","imgNWTK/square.png","NaN","NaN","","",""
"1357","","","bandit-task-exp6","47","287517","0.0-8.0-0.7","non-binary","25","Australia","39489","24714","imgNWTK/square.png","imgNWTK/triangle.png","imgNWTK/square.png","imgNWTK/triangle.png","noninfo","sub","3.72","","38","1","1","130","null","imgNWTK/triangle.png","imgNWTK/square.png","imgNWTK/square.png","NaN","NaN","","",""
"1141","","","bandit-task-exp6","48","291053","0.0-8.0-0.8","non-binary","25","Australia","39489","24714","imgNWTK/square.png","imgNWTK/triangle.png","imgNWTK/square.png","imgNWTK/triangle.png","noninfo","sub","3.72","","39","2","1","0","null","imgNWTK/square.png","imgNWTK/triangle.png","imgNWTK/triangle.png","NaN","NaN","","",""
"820","","","bandit-task-exp6","49","294365","0.0-8.0-0.9","non-binary","25","Australia","39489","24714","imgNWTK/square.png","imgNWTK/triangle.png","imgNWTK/square.png","imgNWTK/triangle.png","noninfo","sub","3.72","","40","1","2","0","null","imgNWTK/triangle.png","imgNWTK/square.png","imgNWTK/square.png","NaN","NaN","","",""
"452","","","bandit-task-exp6","50","297269","0.0-8.0-0.10","non-binary","25","Australia","39489","24714","imgNWTK/square.png","imgNWTK/triangle.png","imgNWTK/square.png","imgNWTK/triangle.png","noninfo","sub","3.72","","41","2","1","0","null","imgNWTK/square.png","imgNWTK/triangle.png","imgNWTK/triangle.png","NaN","NaN","","",""
"1037","","","bandit-task-exp6","51","300765","0.0-8.0-0.11","non-binary","25","Australia","39489","24714","imgNWTK/square.png","imgNWTK/triangle.png","imgNWTK/square.png","imgNWTK/triangle.png","noninfo","sub","3.72","","42","2","2","80","null","imgNWTK/triangle.png","imgNWTK/square.png","imgNWTK/triangle.png","NaN","NaN","","",""
"979","","","bandit-task-exp6","52","304141","0.0-8.0-0.12","non-binary","25","Australia","39489","24714","imgNWTK/square.png","imgNWTK/triangle.png","imgNWTK/square.png","imgNWTK/triangle.png","noninfo","sub","3.72","","43","2","1","0","null","imgNWTK/triangle.png","imgNWTK/square.png","imgNWTK/triangle.png","NaN","NaN","","",""
"596","","","bandit-task-exp6","53","307233","0.0-8.0-0.13","non-binary","25","Australia","39489","24714","imgNWTK/square.png","imgNWTK/triangle.png","imgNWTK/square.png","imgNWTK/triangle.png","noninfo","sub","3.72","","44","1","1","126","null","imgNWTK/triangle.png","imgNWTK/square.png","imgNWTK/square.png","NaN","NaN","","",""
"881","","","bandit-task-exp6","54","310636","0.0-8.0-0.14","non-binary","25","Australia","39489","24714","imgNWTK/square.png","imgNWTK/triangle.png","imgNWTK/square.png","imgNWTK/triangle.png","noninfo","sub","3.72","","45","1","1","118","null","imgNWTK/square.png","imgNWTK/triangle.png","imgNWTK/square.png","NaN","NaN","","",""
"null","<p><b> Congratulations, you have finished this block. </b> </p><p>Please take a short break before moving onto the next block.</p><p>The next block will start after a 15 second break.</p><b>Remember, the point rewards are the same between blocks","","html-keyboard-response","55","325650","0.0-9.0","non-binary","25","Australia","39489","24714","imgNWTK/square.png","imgNWTK/triangle.png","imgNWTK/square.png","imgNWTK/triangle.png","noninfo","sub","3.72","","","","","","","","","","","","null","",""
"19110","","","bandit-task-exp6","56","348014","0.0-10.0-0.0","non-binary","25","Australia","39489","24714","imgNWTK/square.png","imgNWTK/triangle.png","imgNWTK/square.png","imgNWTK/triangle.png","noninfo","sub","3.72","","46","2","2","80","null","imgNWTK/square.png","imgNWTK/triangle.png","imgNWTK/triangle.png","0","90","","",""
"13835","","","bandit-task-exp6","57","364916","0.0-10.0-0.1","non-binary","25","Australia","39489","24714","imgNWTK/square.png","imgNWTK/triangle.png","imgNWTK/square.png","imgNWTK/triangle.png","noninfo","sub","3.72","","47","1","1","118","null","imgNWTK/square.png","imgNWTK/triangle.png","imgNWTK/square.png","120","0","","",""
"9225","","","bandit-task-exp6","58","377158","0.0-10.0-0.2","non-binary","25","Australia","39489","24714","imgNWTK/square.png","imgNWTK/triangle.png","imgNWTK/square.png","imgNWTK/triangle.png","noninfo","sub","3.72","","48","2","2","90","null","imgNWTK/triangle.png","imgNWTK/square.png","imgNWTK/triangle.png","90","0","","",""
"5211","","","bandit-task-exp6","59","385285","0.0-10.0-0.3","non-binary","25","Australia","39489","24714","imgNWTK/square.png","imgNWTK/triangle.png","imgNWTK/square.png","imgNWTK/triangle.png","noninfo","sub","3.72","","49","2","1","0","null","imgNWTK/triangle.png","imgNWTK/square.png","imgNWTK/triangle.png","90","0","","",""
"6692","","","bandit-task-exp6","60","395054","0.0-10.0-0.4","non-binary","25","Australia","39489","24714","imgNWTK/square.png","imgNWTK/triangle.png","imgNWTK/square.png","imgNWTK/triangle.png","noninfo","sub","3.72","","50","1","1","116","null","imgNWTK/square.png","imgNWTK/triangle.png","imgNWTK/square.png","100","0","","",""
"7123","","","bandit-task-exp6","61","405097","0.0-10.0-0.5","non-binary","25","Australia","39489","24714","imgNWTK/square.png","imgNWTK/triangle.png","imgNWTK/square.png","imgNWTK/triangle.png","noninfo","sub","3.72","","51","1","1","119","null","imgNWTK/square.png","imgNWTK/triangle.png","imgNWTK/square.png","115","0","","",""
"5625","","","bandit-task-exp6","62","413726","0.0-10.0-0.6","non-binary","25","Australia","39489","24714","imgNWTK/square.png","imgNWTK/triangle.png","imgNWTK/square.png","imgNWTK/triangle.png","noninfo","sub","3.72","","52","1","1","116","null","imgNWTK/square.png","imgNWTK/triangle.png","imgNWTK/square.png","120","0","","",""
"5467","","","bandit-task-exp6","63","422013","0.0-10.0-0.7","non-binary","25","Australia","39489","24714","imgNWTK/square.png","imgNWTK/triangle.png","imgNWTK/square.png","imgNWTK/triangle.png","noninfo","sub","3.72","","53","2","2","75","null","imgNWTK/triangle.png","imgNWTK/square.png","imgNWTK/triangle.png","80","0","","",""
"6363","","","bandit-task-exp6","64","431209","0.0-10.0-0.8","non-binary","25","Australia","39489","24714","imgNWTK/square.png","imgNWTK/triangle.png","imgNWTK/square.png","imgNWTK/triangle.png","noninfo","sub","3.72","","54","2","2","75","null","imgNWTK/square.png","imgNWTK/triangle.png","imgNWTK/triangle.png","0","80","","",""
"6370","","","bandit-task-exp6","65","440365","0.0-10.0-0.9","non-binary","25","Australia","39489","24714","imgNWTK/square.png","imgNWTK/triangle.png","imgNWTK/square.png","imgNWTK/triangle.png","noninfo","sub","3.72","","55","2","2","71","null","imgNWTK/square.png","imgNWTK/triangle.png","imgNWTK/triangle.png","0","80","","",""
"6184","","","bandit-task-exp6","66","449650","0.0-10.0-0.10","non-binary","25","Australia","39489","24714","imgNWTK/square.png","imgNWTK/triangle.png","imgNWTK/square.png","imgNWTK/triangle.png","noninfo","sub","3.72","","56","1","1","111","null","imgNWTK/triangle.png","imgNWTK/square.png","imgNWTK/square.png","0","120","","",""
"10292","","","bandit-task-exp6","67","462802","0.0-10.0-0.11","non-binary","25","Australia","39489","24714","imgNWTK/square.png","imgNWTK/triangle.png","imgNWTK/square.png","imgNWTK/triangle.png","noninfo","sub","3.72","","57","2","2","85","null","imgNWTK/square.png","imgNWTK/triangle.png","imgNWTK/triangle.png","0","80","","",""
"7947","","","bandit-task-exp6","68","473706","0.0-10.0-0.12","non-binary","25","Australia","39489","24714","imgNWTK/square.png","imgNWTK/triangle.png","imgNWTK/square.png","imgNWTK/triangle.png","noninfo","sub","3.72","","58","1","1","113","null","imgNWTK/square.png","imgNWTK/triangle.png","imgNWTK/square.png","120","90","","",""
"6227","","","bandit-task-exp6","69","482874","0.0-10.0-0.13","non-binary","25","Australia","39489","24714","imgNWTK/square.png","imgNWTK/triangle.png","imgNWTK/square.png","imgNWTK/triangle.png","noninfo","sub","3.72","","59","1","1","113","null","imgNWTK/triangle.png","imgNWTK/square.png","imgNWTK/square.png","80","120","","",""
"6835","","","bandit-task-exp6","70","492593","0.0-10.0-0.14","non-binary","25","Australia","39489","24714","imgNWTK/square.png","imgNWTK/triangle.png","imgNWTK/square.png","imgNWTK/triangle.png","noninfo","sub","3.72","","60","1","1","110","null","imgNWTK/square.png","imgNWTK/triangle.png","imgNWTK/square.png","120","80","","",""
"3478","<p> Congratulations, you have finished the main part of the experiment. </p><p>Before you finish, we have a few short questions about the options and outcomes you saw in the task.</p>","0","html-button-response","71","496074","0.0-11.0","non-binary","25","Australia","39489","24714","imgNWTK/square.png","imgNWTK/triangle.png","imgNWTK/square.png","imgNWTK/triangle.png","noninfo","sub","3.72","","","","","","","","","","","","","",""
"8069","<p><b>Now, imagine that you clicked on the below button for another 10 trials (this includes <i> BOTH WIN and NO-WIN trials</i>).</p> <img src= 'imgNWTK/triangle.png'></img></br></br> <p><b>Please type the reward (number of points) you would expect to receive on every trial.</br> Click start to begin.</p>","0","html-button-response","72","504146","0.0-12.0","non-binary","25","Australia","39489","24714","imgNWTK/square.png","imgNWTK/triangle.png","imgNWTK/square.png","imgNWTK/triangle.png","noninfo","sub","3.72","","","","","","","","","","","","","",""
"7063","","","survey-number","73","511215","0.0-13.0-0.0","non-binary","25","Australia","39489","24714","imgNWTK/square.png","imgNWTK/triangle.png","imgNWTK/square.png","imgNWTK/triangle.png","noninfo","sub","3.72","{""undefined"":""80""}","","","","","","","","","","","","imgNWTK/triangle.png",""
"4078.2000000476837","","","survey-number","74","515298","0.0-13.0-0.1","non-binary","25","Australia","39489","24714","imgNWTK/square.png","imgNWTK/triangle.png","imgNWTK/square.png","imgNWTK/triangle.png","noninfo","sub","3.72","{""undefined"":""90""}","","","","","","","","","","","","imgNWTK/triangle.png",""
"3530.100000023842","","","survey-number","75","518833","0.0-13.0-0.2","non-binary","25","Australia","39489","24714","imgNWTK/square.png","imgNWTK/triangle.png","imgNWTK/square.png","imgNWTK/triangle.png","noninfo","sub","3.72","{""undefined"":""85""}","","","","","","","","","","","","imgNWTK/triangle.png",""
"3012.800000011921","","","survey-number","76","521850","0.0-13.0-0.3","non-binary","25","Australia","39489","24714","imgNWTK/square.png","imgNWTK/triangle.png","imgNWTK/square.png","imgNWTK/triangle.png","noninfo","sub","3.72","{""undefined"":""80""}","","","","","","","","","","","","imgNWTK/triangle.png",""
"3100","","","survey-number","77","524954","0.0-13.0-0.4","non-binary","25","Australia","39489","24714","imgNWTK/square.png","imgNWTK/triangle.png","imgNWTK/square.png","imgNWTK/triangle.png","noninfo","sub","3.72","{""undefined"":""80""}","","","","","","","","","","","","imgNWTK/triangle.png",""
"3611.300000011921","","","survey-number","78","528570","0.0-13.0-0.5","non-binary","25","Australia","39489","24714","imgNWTK/square.png","imgNWTK/triangle.png","imgNWTK/square.png","imgNWTK/triangle.png","noninfo","sub","3.72","{""undefined"":""89""}","","","","","","","","","","","","imgNWTK/triangle.png",""
"2089.900000035763","","","survey-number","79","530666","0.0-13.0-0.6","non-binary","25","Australia","39489","24714","imgNWTK/square.png","imgNWTK/triangle.png","imgNWTK/square.png","imgNWTK/triangle.png","noninfo","sub","3.72","{""undefined"":""90""}","","","","","","","","","","","","imgNWTK/triangle.png",""
"2123.699999988079","","","survey-number","80","532794","0.0-13.0-0.7","non-binary","25","Australia","39489","24714","imgNWTK/square.png","imgNWTK/triangle.png","imgNWTK/square.png","imgNWTK/triangle.png","noninfo","sub","3.72","{""undefined"":""90""}","","","","","","","","","","","","imgNWTK/triangle.png",""
"2227.399999976158","","","survey-number","81","535026","0.0-13.0-0.8","non-binary","25","Australia","39489","24714","imgNWTK/square.png","imgNWTK/triangle.png","imgNWTK/square.png","imgNWTK/triangle.png","noninfo","sub","3.72","{""undefined"":""90""}","","","","","","","","","","","","imgNWTK/triangle.png",""
"3084.300000011921","","","survey-number","82","538114","0.0-13.0-0.9","non-binary","25","Australia","39489","24714","imgNWTK/square.png","imgNWTK/triangle.png","imgNWTK/square.png","imgNWTK/triangle.png","noninfo","sub","3.72","{""undefined"":""80""}","","","","","","","","","","","","imgNWTK/triangle.png",""
"1532","<p><b>Imagine that you clicked on the below button for another 10 trials (this includes <i> both WIN and NO-WIN trials</i>).</p> <img src= 'imgNWTK/square.png'></img></br></br> <p><b>Please type the reward (number of points) you would expect to receive on every trial.</br> Click start to begin.</p>","0","html-button-response","83","539649","0.0-14.0","non-binary","25","Australia","39489","24714","imgNWTK/square.png","imgNWTK/triangle.png","imgNWTK/square.png","imgNWTK/triangle.png","noninfo","sub","3.72","","","","","","","","","","","","","",""
"2708.7999999523163","","","survey-number","84","542363","0.0-15.0-0.0","non-binary","25","Australia","39489","24714","imgNWTK/square.png","imgNWTK/triangle.png","imgNWTK/square.png","imgNWTK/triangle.png","noninfo","sub","3.72","{""undefined"":""120""}","","","","","","","","","","","","imgNWTK/square.png",""
"2154.399999976158","","","survey-number","85","544522","0.0-15.0-0.1","non-binary","25","Australia","39489","24714","imgNWTK/square.png","imgNWTK/triangle.png","imgNWTK/square.png","imgNWTK/triangle.png","noninfo","sub","3.72","{""undefined"":""120""}","","","","","","","","","","","","imgNWTK/square.png",""
"1474.5","","","survey-number","86","546001","0.0-15.0-0.2","non-binary","25","Australia","39489","24714","imgNWTK/square.png","imgNWTK/triangle.png","imgNWTK/square.png","imgNWTK/triangle.png","noninfo","sub","3.72","{""undefined"":""120""}","","","","","","","","","","","","imgNWTK/square.png",""
"1661.0999999642372","","","survey-number","87","547667","0.0-15.0-0.3","non-binary","25","Australia","39489","24714","imgNWTK/square.png","imgNWTK/triangle.png","imgNWTK/square.png","imgNWTK/triangle.png","noninfo","sub","3.72","{""undefined"":""120""}","","","","","","","","","","","","imgNWTK/square.png",""
"1237.199999988079","","","survey-number","88","548910","0.0-15.0-0.4","non-binary","25","Australia","39489","24714","imgNWTK/square.png","imgNWTK/triangle.png","imgNWTK/square.png","imgNWTK/triangle.png","noninfo","sub","3.72","{""undefined"":""120""}","","","","","","","","","","","","imgNWTK/square.png",""
"730.3000000119209","","","survey-number","89","549645","0.0-15.0-0.5","non-binary","25","Australia","39489","24714","imgNWTK/square.png","imgNWTK/triangle.png","imgNWTK/square.png","imgNWTK/triangle.png","noninfo","sub","3.72","{""undefined"":""120""}","","","","","","","","","","","","imgNWTK/square.png",""
"801","","","survey-number","90","550451","0.0-15.0-0.6","non-binary","25","Australia","39489","24714","imgNWTK/square.png","imgNWTK/triangle.png","imgNWTK/square.png","imgNWTK/triangle.png","noninfo","sub","3.72","{""undefined"":""120""}","","","","","","","","","","","","imgNWTK/square.png",""
"1198.1000000238419","","","survey-number","91","551654","0.0-15.0-0.7","non-binary","25","Australia","39489","24714","imgNWTK/square.png","imgNWTK/triangle.png","imgNWTK/square.png","imgNWTK/triangle.png","noninfo","sub","3.72","{""undefined"":""118""}","","","","","","","","","","","","imgNWTK/square.png",""
"1887.5","","","survey-number","92","553547","0.0-15.0-0.8","non-binary","25","Australia","39489","24714","imgNWTK/square.png","imgNWTK/triangle.png","imgNWTK/square.png","imgNWTK/triangle.png","noninfo","sub","3.72","{""undefined"":""118""}","","","","","","","","","","","","imgNWTK/square.png",""
"1968.8999999761581","","","survey-number","93","555521","0.0-15.0-0.9","non-binary","25","Australia","39489","24714","imgNWTK/square.png","imgNWTK/triangle.png","imgNWTK/square.png","imgNWTK/triangle.png","noninfo","sub","3.72","{""undefined"":""120""}","","","","","","","","","","","","imgNWTK/square.png",""
"41650.90000003576","","","survey-number","94","597187","0.0-16.0","non-binary","25","Australia","39489","24714","imgNWTK/square.png","imgNWTK/triangle.png","imgNWTK/square.png","imgNWTK/triangle.png","noninfo","sub","3.72","{""undefined"":""120""}","","","","","","","","","","","","","imgNWTK/square.png"
"5507.699999988079","","","survey-number","95","602699","0.0-17.0","non-binary","25","Australia","39489","24714","imgNWTK/square.png","imgNWTK/triangle.png","imgNWTK/square.png","imgNWTK/triangle.png","noninfo","sub","3.72","{""undefined"":""80""}","","","","","","","","","","","","","imgNWTK/triangle.png"
"24444","<p style=""text-align:left;"">Great! We are almost at the end of the study... (Please do not close the browser window yet.)</p><p> Your final points balance is 3719, which equals to a bonus payment of $3.72. Please collect your payment from Mathews Building Room 721 (Mon-Fri 9am-5pm); please email amy.x.li@unsw.edu.au at least 24 hours prior to collection so that this is ready for you.</p><p style=""text-align:left;"">To view the debriefing form, please click <a href=""./imgNWTK/debrief_3205.pdf"" target=""_blank"">here</a> to download a copy.</p><p style=""text-align:left;"">Then, <b>please click the below button</b> to confirm that you have received your debrief and to complete the study. Upon clicking ""Finish!"", your SONA credit will be automatically assigned.</p>","0","html-button-response","96","627147","0.0-18.0","non-binary","25","Australia","39489","24714","imgNWTK/square.png","imgNWTK/triangle.png","imgNWTK/square.png","imgNWTK/triangle.png","noninfo","sub","3.72","","","","","","","","","","","","","",""
