"rt","stimulus","button_pressed","trial_type","trial_index","time_elapsed","internal_node_id","gender","age","language","PID","sona_id","subStim","optStim","stim1","stim2","infoCond","optimCond","bonus","responses","banditTrial","choice","cue","feedback","estimateData","leftOption","rightOption","choiceName","leftInput","rightInput","key_press","postQ","singleEst"
"2507","<p>Thank you for signing up to participate in SONA Study 465! <br> During this study, please focus on the experiment and refrain from activities such as:</p>- <b>Switching to other tabs on your browser (this will be monitored via the experiment)</br> - Using your mobile phone/cell phone</br> - Communicating with others</br></br></b><p>This way, you are helping to provide data that is useful for psychological research. We thank you for your cooperation!</p>","0","html-button-response","0","2510","0.0-0.0","female","20","Australia ","15846","26149","imgNWTK/KeepItSecret.jpg","imgNWTK/FindOutNow.jpg","imgNWTK/KeepItSecret.jpg","imgNWTK/FindOutNow.jpg","info","sub","2.93","","","","","","","","","","","","","",""
"760","<p>Welcome to the experiment!</p><p>You will now read some instructions about the task. Press the 'Next' button to continue. </p>","0","html-button-response","1","3272","0.0-1.0","female","20","Australia ","15846","26149","imgNWTK/KeepItSecret.jpg","imgNWTK/FindOutNow.jpg","imgNWTK/KeepItSecret.jpg","imgNWTK/FindOutNow.jpg","info","sub","2.93","","","","","","","","","","","","","",""
"7968","<p> On each trial throughout the experiment you will choose between the options </br><b> Find Out Now </b> and <b> Keep It Secret </b>, as shown below.</p><div><div style= 'float: left; width: 300px; margin: 10px 10px;'><img src= 'imgNWTK/KeepItSecret.jpg'></img></div><div style= 'float: right; width: 300px; margin: 10px 10px;'><img src= 'imgNWTK/FindOutNow.jpg'></img></div></div><br/><br/><br/><br/><br/><br/><br/><br/><br/><br/><br/><p>Each option results in winning points or receiving 0 points.</br>There is a 50% chance of either winning or receiving 0 points.</p><p>You won't receive the outcome until after a <b> 20 second delay</b>. However, selecting the Find Out Now option will allow you to find out about the outcome early, whereas the Keep It Secret option will not. </p>","0","html-button-response","2","11243","0.0-2.0-0.0","female","20","Australia ","15846","26149","imgNWTK/KeepItSecret.jpg","imgNWTK/FindOutNow.jpg","imgNWTK/KeepItSecret.jpg","imgNWTK/FindOutNow.jpg","info","sub","2.93","","","","","","","","","","","","","",""
"15109","<img src= 'cues/Experiment6.png'></img><p>As seen above, when choosing the <b>'Find Out Now'</b> option, you will receive either a happy face or sad face.</br>The happy face means you will win points after the delay, whereas the sad face means you will receive 0 points.</br></p><p> When choosing the <b> 'Keep it Secret' </b> option you will receive a confused face.</br> This face appears regardless of whether you are going to win points or not. </p>In short, choosing 'Find Out Now' allows you to find out the outcome before you experience it (after the delay).</br></br>","0","html-button-response","3","26354","0.0-2.0-1.0","female","20","Australia ","15846","26149","imgNWTK/KeepItSecret.jpg","imgNWTK/FindOutNow.jpg","imgNWTK/KeepItSecret.jpg","imgNWTK/FindOutNow.jpg","info","sub","2.93","","","","","","","","","","","","","",""
"4891","<img src= 'cues/winTrials_info.png' width = '1200'></img><p>To reiterate, 50% of the outcomes of each option will be WIN TRIALS, and the other 50% will be NO-WIN TRIALS.","0","html-button-response","4","31247","0.0-2.0-2.0","female","20","Australia ","15846","26149","imgNWTK/KeepItSecret.jpg","imgNWTK/FindOutNow.jpg","imgNWTK/KeepItSecret.jpg","imgNWTK/FindOutNow.jpg","info","sub","2.93","","","","","","","","","","","","","",""
"3680","<p> There will be <b>four blocks</b> in the experiment.</br>You will be given a short 15 second break between each block.</p><p><b>The points and the options will remain the same between the blocks.</b></p>The blocks are there just to give you a small break.</br></br><p>The points you earn in the task are also equal to <b> actual money</b>.</br> <b>1000 points is equal to $1.</b></p><p>This is the rate you will be paid at the experiment's end.","0","html-button-response","5","34929","0.0-2.0-3.0","female","20","Australia ","15846","26149","imgNWTK/KeepItSecret.jpg","imgNWTK/FindOutNow.jpg","imgNWTK/KeepItSecret.jpg","imgNWTK/FindOutNow.jpg","info","sub","2.93","","","","","","","","","","","","","",""
"17385","","","survey-multi-choice","6","52324","0.0-2.0-4.0","female","20","Australia ","15846","26149","imgNWTK/KeepItSecret.jpg","imgNWTK/FindOutNow.jpg","imgNWTK/KeepItSecret.jpg","imgNWTK/FindOutNow.jpg","info","sub","2.93","{""Q0"":""20 Seconds"",""Q1"":""True"",""Q2"":""Equally"",""Q3"":""True""}","","","","","","","","","","","","",""
"1406","<p> Well done, all your answers were correct! <br> The experiment is about to start now. <br/> Click start to continue, or email your researcher <b>(amy.x.li@unsw.edu.au)</b> if you have any questions before starting.","0","html-button-response","7","53735","0.0-3.0","female","20","Australia ","15846","26149","imgNWTK/KeepItSecret.jpg","imgNWTK/FindOutNow.jpg","imgNWTK/KeepItSecret.jpg","imgNWTK/FindOutNow.jpg","info","sub","2.93","","","","","","","","","","","","","",""
"2129","","","bandit-task-exp6","8","77892","0.0-4.0-0.0","female","20","Australia ","15846","26149","imgNWTK/KeepItSecret.jpg","imgNWTK/FindOutNow.jpg","imgNWTK/KeepItSecret.jpg","imgNWTK/FindOutNow.jpg","info","sub","2.93","","1","2","1","0","null","imgNWTK/FindOutNow.jpg","imgNWTK/KeepItSecret.jpg","imgNWTK/FindOutNow.jpg","NaN","NaN","","",""
"1056","","","bandit-task-exp6","9","105837","0.0-4.0-0.1","female","20","Australia ","15846","26149","imgNWTK/KeepItSecret.jpg","imgNWTK/FindOutNow.jpg","imgNWTK/KeepItSecret.jpg","imgNWTK/FindOutNow.jpg","info","sub","2.93","","2","2","1","0","null","imgNWTK/KeepItSecret.jpg","imgNWTK/FindOutNow.jpg","imgNWTK/FindOutNow.jpg","NaN","NaN","","",""
"1010","","","bandit-task-exp6","10","129276","0.0-4.0-0.2","female","20","Australia ","15846","26149","imgNWTK/KeepItSecret.jpg","imgNWTK/FindOutNow.jpg","imgNWTK/KeepItSecret.jpg","imgNWTK/FindOutNow.jpg","info","sub","2.93","","3","2","1","0","null","imgNWTK/FindOutNow.jpg","imgNWTK/KeepItSecret.jpg","imgNWTK/FindOutNow.jpg","NaN","NaN","","",""
"2693","","","bandit-task-exp6","11","153880","0.0-4.0-0.3","female","20","Australia ","15846","26149","imgNWTK/KeepItSecret.jpg","imgNWTK/FindOutNow.jpg","imgNWTK/KeepItSecret.jpg","imgNWTK/FindOutNow.jpg","info","sub","2.93","","4","1","2","0","null","imgNWTK/KeepItSecret.jpg","imgNWTK/FindOutNow.jpg","imgNWTK/KeepItSecret.jpg","NaN","NaN","","",""
"1375","","","bandit-task-exp6","12","177014","0.0-4.0-0.4","female","20","Australia ","15846","26149","imgNWTK/KeepItSecret.jpg","imgNWTK/FindOutNow.jpg","imgNWTK/KeepItSecret.jpg","imgNWTK/FindOutNow.jpg","info","sub","2.93","","5","1","2","0","null","imgNWTK/FindOutNow.jpg","imgNWTK/KeepItSecret.jpg","imgNWTK/KeepItSecret.jpg","NaN","NaN","","",""
"1576","","","bandit-task-exp6","13","200376","0.0-4.0-0.5","female","20","Australia ","15846","26149","imgNWTK/KeepItSecret.jpg","imgNWTK/FindOutNow.jpg","imgNWTK/KeepItSecret.jpg","imgNWTK/FindOutNow.jpg","info","sub","2.93","","6","2","2","80","null","imgNWTK/KeepItSecret.jpg","imgNWTK/FindOutNow.jpg","imgNWTK/FindOutNow.jpg","NaN","NaN","","",""
"5620","","","bandit-task-exp6","14","228170","0.0-4.0-0.6","female","20","Australia ","15846","26149","imgNWTK/KeepItSecret.jpg","imgNWTK/FindOutNow.jpg","imgNWTK/KeepItSecret.jpg","imgNWTK/FindOutNow.jpg","info","sub","2.93","","7","1","1","112","null","imgNWTK/FindOutNow.jpg","imgNWTK/KeepItSecret.jpg","imgNWTK/KeepItSecret.jpg","NaN","NaN","","",""
"2257","","","bandit-task-exp6","15","252387","0.0-4.0-0.7","female","20","Australia ","15846","26149","imgNWTK/KeepItSecret.jpg","imgNWTK/FindOutNow.jpg","imgNWTK/KeepItSecret.jpg","imgNWTK/FindOutNow.jpg","info","sub","2.93","","8","1","2","0","null","imgNWTK/FindOutNow.jpg","imgNWTK/KeepItSecret.jpg","imgNWTK/KeepItSecret.jpg","NaN","NaN","","",""
"968","","","bandit-task-exp6","16","275580","0.0-4.0-0.8","female","20","Australia ","15846","26149","imgNWTK/KeepItSecret.jpg","imgNWTK/FindOutNow.jpg","imgNWTK/KeepItSecret.jpg","imgNWTK/FindOutNow.jpg","info","sub","2.93","","9","2","1","0","null","imgNWTK/KeepItSecret.jpg","imgNWTK/FindOutNow.jpg","imgNWTK/FindOutNow.jpg","NaN","NaN","","",""
"2486","","","bandit-task-exp6","17","299905","0.0-4.0-0.9","female","20","Australia ","15846","26149","imgNWTK/KeepItSecret.jpg","imgNWTK/FindOutNow.jpg","imgNWTK/KeepItSecret.jpg","imgNWTK/FindOutNow.jpg","info","sub","2.93","","10","2","2","90","null","imgNWTK/FindOutNow.jpg","imgNWTK/KeepItSecret.jpg","imgNWTK/FindOutNow.jpg","NaN","NaN","","",""
"848","","","bandit-task-exp6","18","322811","0.0-4.0-0.10","female","20","Australia ","15846","26149","imgNWTK/KeepItSecret.jpg","imgNWTK/FindOutNow.jpg","imgNWTK/KeepItSecret.jpg","imgNWTK/FindOutNow.jpg","info","sub","2.93","","11","1","2","0","null","imgNWTK/FindOutNow.jpg","imgNWTK/KeepItSecret.jpg","imgNWTK/KeepItSecret.jpg","NaN","NaN","","",""
"3174","","","bandit-task-exp6","19","348609","0.0-4.0-0.11","female","20","Australia ","15846","26149","imgNWTK/KeepItSecret.jpg","imgNWTK/FindOutNow.jpg","imgNWTK/KeepItSecret.jpg","imgNWTK/FindOutNow.jpg","info","sub","2.93","","12","2","2","80","null","imgNWTK/FindOutNow.jpg","imgNWTK/KeepItSecret.jpg","imgNWTK/FindOutNow.jpg","NaN","NaN","","",""
"2351","","","bandit-task-exp6","20","373187","0.0-4.0-0.12","female","20","Australia ","15846","26149","imgNWTK/KeepItSecret.jpg","imgNWTK/FindOutNow.jpg","imgNWTK/KeepItSecret.jpg","imgNWTK/FindOutNow.jpg","info","sub","2.93","","13","1","1","110","null","imgNWTK/FindOutNow.jpg","imgNWTK/KeepItSecret.jpg","imgNWTK/KeepItSecret.jpg","NaN","NaN","","",""
"3757","","","bandit-task-exp6","21","399281","0.0-4.0-0.13","female","20","Australia ","15846","26149","imgNWTK/KeepItSecret.jpg","imgNWTK/FindOutNow.jpg","imgNWTK/KeepItSecret.jpg","imgNWTK/FindOutNow.jpg","info","sub","2.93","","14","2","1","0","null","imgNWTK/KeepItSecret.jpg","imgNWTK/FindOutNow.jpg","imgNWTK/FindOutNow.jpg","NaN","NaN","","",""
"1279","","","bandit-task-exp6","22","422343","0.0-4.0-0.14","female","20","Australia ","15846","26149","imgNWTK/KeepItSecret.jpg","imgNWTK/FindOutNow.jpg","imgNWTK/KeepItSecret.jpg","imgNWTK/FindOutNow.jpg","info","sub","2.93","","15","1","2","0","null","imgNWTK/KeepItSecret.jpg","imgNWTK/FindOutNow.jpg","imgNWTK/KeepItSecret.jpg","NaN","NaN","","",""
"null","<p><b> Congratulations, you have finished this block. </b> </p><p>Please take a short break before moving onto the next block.</p><p>The next block will start after a 15 second break.</p><b>Remember, the point rewards are the same between blocks","","html-keyboard-response","23","437346","0.0-5.0","female","20","Australia ","15846","26149","imgNWTK/KeepItSecret.jpg","imgNWTK/FindOutNow.jpg","imgNWTK/KeepItSecret.jpg","imgNWTK/FindOutNow.jpg","info","sub","2.93","","","","","","","","","","","","null","",""
"4238","","","bandit-task-exp6","24","464717","0.0-6.0-0.0","female","20","Australia ","15846","26149","imgNWTK/KeepItSecret.jpg","imgNWTK/FindOutNow.jpg","imgNWTK/KeepItSecret.jpg","imgNWTK/FindOutNow.jpg","info","sub","2.93","","16","2","1","0","null","imgNWTK/FindOutNow.jpg","imgNWTK/KeepItSecret.jpg","imgNWTK/FindOutNow.jpg","NaN","NaN","","",""
"1528","","","bandit-task-exp6","25","488270","0.0-6.0-0.1","female","20","Australia ","15846","26149","imgNWTK/KeepItSecret.jpg","imgNWTK/FindOutNow.jpg","imgNWTK/KeepItSecret.jpg","imgNWTK/FindOutNow.jpg","info","sub","2.93","","17","2","2","78","null","imgNWTK/FindOutNow.jpg","imgNWTK/KeepItSecret.jpg","imgNWTK/FindOutNow.jpg","NaN","NaN","","",""
"805","","","bandit-task-exp6","26","511138","0.0-6.0-0.2","female","20","Australia ","15846","26149","imgNWTK/KeepItSecret.jpg","imgNWTK/FindOutNow.jpg","imgNWTK/KeepItSecret.jpg","imgNWTK/FindOutNow.jpg","info","sub","2.93","","18","2","1","0","null","imgNWTK/FindOutNow.jpg","imgNWTK/KeepItSecret.jpg","imgNWTK/FindOutNow.jpg","NaN","NaN","","",""
"1100","","","bandit-task-exp6","27","534166","0.0-6.0-0.3","female","20","Australia ","15846","26149","imgNWTK/KeepItSecret.jpg","imgNWTK/FindOutNow.jpg","imgNWTK/KeepItSecret.jpg","imgNWTK/FindOutNow.jpg","info","sub","2.93","","19","1","1","123","null","imgNWTK/FindOutNow.jpg","imgNWTK/KeepItSecret.jpg","imgNWTK/KeepItSecret.jpg","NaN","NaN","","",""
"856","","","bandit-task-exp6","28","557544","0.0-6.0-0.4","female","20","Australia ","15846","26149","imgNWTK/KeepItSecret.jpg","imgNWTK/FindOutNow.jpg","imgNWTK/KeepItSecret.jpg","imgNWTK/FindOutNow.jpg","info","sub","2.93","","20","1","1","127","null","imgNWTK/FindOutNow.jpg","imgNWTK/KeepItSecret.jpg","imgNWTK/KeepItSecret.jpg","NaN","NaN","","",""
"1028","","","bandit-task-exp6","29","580742","0.0-6.0-0.5","female","20","Australia ","15846","26149","imgNWTK/KeepItSecret.jpg","imgNWTK/FindOutNow.jpg","imgNWTK/KeepItSecret.jpg","imgNWTK/FindOutNow.jpg","info","sub","2.93","","21","2","1","0","null","imgNWTK/FindOutNow.jpg","imgNWTK/KeepItSecret.jpg","imgNWTK/FindOutNow.jpg","NaN","NaN","","",""
"1083","","","bandit-task-exp6","30","604298","0.0-6.0-0.6","female","20","Australia ","15846","26149","imgNWTK/KeepItSecret.jpg","imgNWTK/FindOutNow.jpg","imgNWTK/KeepItSecret.jpg","imgNWTK/FindOutNow.jpg","info","sub","2.93","","22","2","2","80","null","imgNWTK/FindOutNow.jpg","imgNWTK/KeepItSecret.jpg","imgNWTK/FindOutNow.jpg","NaN","NaN","","",""
"894","","","bandit-task-exp6","31","627255","0.0-6.0-0.7","female","20","Australia ","15846","26149","imgNWTK/KeepItSecret.jpg","imgNWTK/FindOutNow.jpg","imgNWTK/KeepItSecret.jpg","imgNWTK/FindOutNow.jpg","info","sub","2.93","","23","2","1","0","null","imgNWTK/FindOutNow.jpg","imgNWTK/KeepItSecret.jpg","imgNWTK/FindOutNow.jpg","NaN","NaN","","",""
"617","","","bandit-task-exp6","32","649763","0.0-6.0-0.8","female","20","Australia ","15846","26149","imgNWTK/KeepItSecret.jpg","imgNWTK/FindOutNow.jpg","imgNWTK/KeepItSecret.jpg","imgNWTK/FindOutNow.jpg","info","sub","2.93","","24","2","2","86","null","imgNWTK/KeepItSecret.jpg","imgNWTK/FindOutNow.jpg","imgNWTK/FindOutNow.jpg","NaN","NaN","","",""
"794","","","bandit-task-exp6","33","672348","0.0-6.0-0.9","female","20","Australia ","15846","26149","imgNWTK/KeepItSecret.jpg","imgNWTK/FindOutNow.jpg","imgNWTK/KeepItSecret.jpg","imgNWTK/FindOutNow.jpg","info","sub","2.93","","25","1","2","0","null","imgNWTK/KeepItSecret.jpg","imgNWTK/FindOutNow.jpg","imgNWTK/KeepItSecret.jpg","NaN","NaN","","",""
"1123","","","bandit-task-exp6","34","695404","0.0-6.0-0.10","female","20","Australia ","15846","26149","imgNWTK/KeepItSecret.jpg","imgNWTK/FindOutNow.jpg","imgNWTK/KeepItSecret.jpg","imgNWTK/FindOutNow.jpg","info","sub","2.93","","26","1","2","0","null","imgNWTK/FindOutNow.jpg","imgNWTK/KeepItSecret.jpg","imgNWTK/KeepItSecret.jpg","NaN","NaN","","",""
"1393","","","bandit-task-exp6","35","718666","0.0-6.0-0.11","female","20","Australia ","15846","26149","imgNWTK/KeepItSecret.jpg","imgNWTK/FindOutNow.jpg","imgNWTK/KeepItSecret.jpg","imgNWTK/FindOutNow.jpg","info","sub","2.93","","27","2","2","85","null","imgNWTK/FindOutNow.jpg","imgNWTK/KeepItSecret.jpg","imgNWTK/FindOutNow.jpg","NaN","NaN","","",""
"1214","","","bandit-task-exp6","36","741665","0.0-6.0-0.12","female","20","Australia ","15846","26149","imgNWTK/KeepItSecret.jpg","imgNWTK/FindOutNow.jpg","imgNWTK/KeepItSecret.jpg","imgNWTK/FindOutNow.jpg","info","sub","2.93","","28","1","1","120","null","imgNWTK/FindOutNow.jpg","imgNWTK/KeepItSecret.jpg","imgNWTK/KeepItSecret.jpg","NaN","NaN","","",""
"1227","","","bandit-task-exp6","37","764524","0.0-6.0-0.13","female","20","Australia ","15846","26149","imgNWTK/KeepItSecret.jpg","imgNWTK/FindOutNow.jpg","imgNWTK/KeepItSecret.jpg","imgNWTK/FindOutNow.jpg","info","sub","2.93","","29","1","2","0","null","imgNWTK/KeepItSecret.jpg","imgNWTK/FindOutNow.jpg","imgNWTK/KeepItSecret.jpg","NaN","NaN","","",""
"825","","","bandit-task-exp6","38","787477","0.0-6.0-0.14","female","20","Australia ","15846","26149","imgNWTK/KeepItSecret.jpg","imgNWTK/FindOutNow.jpg","imgNWTK/KeepItSecret.jpg","imgNWTK/FindOutNow.jpg","info","sub","2.93","","30","2","2","86","null","imgNWTK/KeepItSecret.jpg","imgNWTK/FindOutNow.jpg","imgNWTK/FindOutNow.jpg","NaN","NaN","","",""
"null","<p><b> Congratulations, you have finished this block. </b> </p><p>Please take a short break before moving onto the next block.</p><p>The next block will start after a 15 second break.</p><b>Remember, the point rewards are the same between blocks","","html-keyboard-response","39","803441","0.0-7.0","female","20","Australia ","15846","26149","imgNWTK/KeepItSecret.jpg","imgNWTK/FindOutNow.jpg","imgNWTK/KeepItSecret.jpg","imgNWTK/FindOutNow.jpg","info","sub","2.93","","","","","","","","","","","","null","",""
"3074","","","bandit-task-exp6","40","828392","0.0-8.0-0.0","female","20","Australia ","15846","26149","imgNWTK/KeepItSecret.jpg","imgNWTK/FindOutNow.jpg","imgNWTK/KeepItSecret.jpg","imgNWTK/FindOutNow.jpg","info","sub","2.93","","31","1","1","116","null","imgNWTK/KeepItSecret.jpg","imgNWTK/FindOutNow.jpg","imgNWTK/KeepItSecret.jpg","NaN","NaN","","",""
"2556","","","bandit-task-exp6","41","852831","0.0-8.0-0.1","female","20","Australia ","15846","26149","imgNWTK/KeepItSecret.jpg","imgNWTK/FindOutNow.jpg","imgNWTK/KeepItSecret.jpg","imgNWTK/FindOutNow.jpg","info","sub","2.93","","32","2","2","75","null","imgNWTK/FindOutNow.jpg","imgNWTK/KeepItSecret.jpg","imgNWTK/FindOutNow.jpg","NaN","NaN","","",""
"1177","","","bandit-task-exp6","42","875641","0.0-8.0-0.2","female","20","Australia ","15846","26149","imgNWTK/KeepItSecret.jpg","imgNWTK/FindOutNow.jpg","imgNWTK/KeepItSecret.jpg","imgNWTK/FindOutNow.jpg","info","sub","2.93","","33","1","1","118","null","imgNWTK/KeepItSecret.jpg","imgNWTK/FindOutNow.jpg","imgNWTK/KeepItSecret.jpg","NaN","NaN","","",""
"827","","","bandit-task-exp6","43","914759","0.0-8.0-0.3","female","20","Australia ","15846","26149","imgNWTK/KeepItSecret.jpg","imgNWTK/FindOutNow.jpg","imgNWTK/KeepItSecret.jpg","imgNWTK/FindOutNow.jpg","info","sub","2.93","","34","2","1","0","null","imgNWTK/KeepItSecret.jpg","imgNWTK/FindOutNow.jpg","imgNWTK/FindOutNow.jpg","NaN","NaN","","",""
"1282","","","bandit-task-exp6","44","937710","0.0-8.0-0.4","female","20","Australia ","15846","26149","imgNWTK/KeepItSecret.jpg","imgNWTK/FindOutNow.jpg","imgNWTK/KeepItSecret.jpg","imgNWTK/FindOutNow.jpg","info","sub","2.93","","35","1","2","0","null","imgNWTK/KeepItSecret.jpg","imgNWTK/FindOutNow.jpg","imgNWTK/KeepItSecret.jpg","NaN","NaN","","",""
"780","","","bandit-task-exp6","45","960763","0.0-8.0-0.5","female","20","Australia ","15846","26149","imgNWTK/KeepItSecret.jpg","imgNWTK/FindOutNow.jpg","imgNWTK/KeepItSecret.jpg","imgNWTK/FindOutNow.jpg","info","sub","2.93","","36","2","1","0","null","imgNWTK/KeepItSecret.jpg","imgNWTK/FindOutNow.jpg","imgNWTK/FindOutNow.jpg","NaN","NaN","","",""
"848","","","bandit-task-exp6","46","983376","0.0-8.0-0.6","female","20","Australia ","15846","26149","imgNWTK/KeepItSecret.jpg","imgNWTK/FindOutNow.jpg","imgNWTK/KeepItSecret.jpg","imgNWTK/FindOutNow.jpg","info","sub","2.93","","37","2","2","79","null","imgNWTK/KeepItSecret.jpg","imgNWTK/FindOutNow.jpg","imgNWTK/FindOutNow.jpg","NaN","NaN","","",""
"977","","","bandit-task-exp6","47","1006130","0.0-8.0-0.7","female","20","Australia ","15846","26149","imgNWTK/KeepItSecret.jpg","imgNWTK/FindOutNow.jpg","imgNWTK/KeepItSecret.jpg","imgNWTK/FindOutNow.jpg","info","sub","2.93","","38","2","2","72","null","imgNWTK/FindOutNow.jpg","imgNWTK/KeepItSecret.jpg","imgNWTK/FindOutNow.jpg","NaN","NaN","","",""
"1772","","","bandit-task-exp6","48","1029718","0.0-8.0-0.8","female","20","Australia ","15846","26149","imgNWTK/KeepItSecret.jpg","imgNWTK/FindOutNow.jpg","imgNWTK/KeepItSecret.jpg","imgNWTK/FindOutNow.jpg","info","sub","2.93","","39","2","2","74","null","imgNWTK/KeepItSecret.jpg","imgNWTK/FindOutNow.jpg","imgNWTK/FindOutNow.jpg","NaN","NaN","","",""
"1003","","","bandit-task-exp6","49","1052459","0.0-8.0-0.9","female","20","Australia ","15846","26149","imgNWTK/KeepItSecret.jpg","imgNWTK/FindOutNow.jpg","imgNWTK/KeepItSecret.jpg","imgNWTK/FindOutNow.jpg","info","sub","2.93","","40","1","1","128","null","imgNWTK/FindOutNow.jpg","imgNWTK/KeepItSecret.jpg","imgNWTK/KeepItSecret.jpg","NaN","NaN","","",""
"864","","","bandit-task-exp6","50","1075221","0.0-8.0-0.10","female","20","Australia ","15846","26149","imgNWTK/KeepItSecret.jpg","imgNWTK/FindOutNow.jpg","imgNWTK/KeepItSecret.jpg","imgNWTK/FindOutNow.jpg","info","sub","2.93","","41","2","2","84","null","imgNWTK/KeepItSecret.jpg","imgNWTK/FindOutNow.jpg","imgNWTK/FindOutNow.jpg","NaN","NaN","","",""
"1764","","","bandit-task-exp6","51","1098567","0.0-8.0-0.11","female","20","Australia ","15846","26149","imgNWTK/KeepItSecret.jpg","imgNWTK/FindOutNow.jpg","imgNWTK/KeepItSecret.jpg","imgNWTK/FindOutNow.jpg","info","sub","2.93","","42","2","2","88","null","imgNWTK/FindOutNow.jpg","imgNWTK/KeepItSecret.jpg","imgNWTK/FindOutNow.jpg","NaN","NaN","","",""
"706","","","bandit-task-exp6","52","1120740","0.0-8.0-0.12","female","20","Australia ","15846","26149","imgNWTK/KeepItSecret.jpg","imgNWTK/FindOutNow.jpg","imgNWTK/KeepItSecret.jpg","imgNWTK/FindOutNow.jpg","info","sub","2.93","","43","2","1","0","null","imgNWTK/FindOutNow.jpg","imgNWTK/KeepItSecret.jpg","imgNWTK/FindOutNow.jpg","NaN","NaN","","",""
"1327","","","bandit-task-exp6","53","1143872","0.0-8.0-0.13","female","20","Australia ","15846","26149","imgNWTK/KeepItSecret.jpg","imgNWTK/FindOutNow.jpg","imgNWTK/KeepItSecret.jpg","imgNWTK/FindOutNow.jpg","info","sub","2.93","","44","2","2","85","null","imgNWTK/KeepItSecret.jpg","imgNWTK/FindOutNow.jpg","imgNWTK/FindOutNow.jpg","NaN","NaN","","",""
"1952","","","bandit-task-exp6","54","1167304","0.0-8.0-0.14","female","20","Australia ","15846","26149","imgNWTK/KeepItSecret.jpg","imgNWTK/FindOutNow.jpg","imgNWTK/KeepItSecret.jpg","imgNWTK/FindOutNow.jpg","info","sub","2.93","","45","2","2","79","null","imgNWTK/KeepItSecret.jpg","imgNWTK/FindOutNow.jpg","imgNWTK/FindOutNow.jpg","NaN","NaN","","",""
"null","<p><b> Congratulations, you have finished this block. </b> </p><p>Please take a short break before moving onto the next block.</p><p>The next block will start after a 15 second break.</p><b>Remember, the point rewards are the same between blocks","","html-keyboard-response","55","1182305","0.0-9.0","female","20","Australia ","15846","26149","imgNWTK/KeepItSecret.jpg","imgNWTK/FindOutNow.jpg","imgNWTK/KeepItSecret.jpg","imgNWTK/FindOutNow.jpg","info","sub","2.93","","","","","","","","","","","","null","",""
"16926","","","bandit-task-exp6","56","1222343","0.0-10.0-0.0","female","20","Australia ","15846","26149","imgNWTK/KeepItSecret.jpg","imgNWTK/FindOutNow.jpg","imgNWTK/KeepItSecret.jpg","imgNWTK/FindOutNow.jpg","info","sub","2.93","","46","1","2","0","null","imgNWTK/FindOutNow.jpg","imgNWTK/KeepItSecret.jpg","imgNWTK/KeepItSecret.jpg","100","80","","",""
"8238","","","bandit-task-exp6","57","1266116","0.0-10.0-0.1","female","20","Australia ","15846","26149","imgNWTK/KeepItSecret.jpg","imgNWTK/FindOutNow.jpg","imgNWTK/KeepItSecret.jpg","imgNWTK/FindOutNow.jpg","info","sub","2.93","","47","2","1","0","null","imgNWTK/FindOutNow.jpg","imgNWTK/KeepItSecret.jpg","imgNWTK/FindOutNow.jpg","112","88","","",""
"9193","","","bandit-task-exp6","58","1298280","0.0-10.0-0.2","female","20","Australia ","15846","26149","imgNWTK/KeepItSecret.jpg","imgNWTK/FindOutNow.jpg","imgNWTK/KeepItSecret.jpg","imgNWTK/FindOutNow.jpg","info","sub","2.93","","48","2","2","84","null","imgNWTK/FindOutNow.jpg","imgNWTK/KeepItSecret.jpg","imgNWTK/FindOutNow.jpg","100","102","","",""
"5250","","","bandit-task-exp6","59","1326510","0.0-10.0-0.3","female","20","Australia ","15846","26149","imgNWTK/KeepItSecret.jpg","imgNWTK/FindOutNow.jpg","imgNWTK/KeepItSecret.jpg","imgNWTK/FindOutNow.jpg","info","sub","2.93","","49","1","1","114","null","imgNWTK/FindOutNow.jpg","imgNWTK/KeepItSecret.jpg","imgNWTK/KeepItSecret.jpg","100","100","","",""
"7992","","","bandit-task-exp6","60","1357167","0.0-10.0-0.4","female","20","Australia ","15846","26149","imgNWTK/KeepItSecret.jpg","imgNWTK/FindOutNow.jpg","imgNWTK/KeepItSecret.jpg","imgNWTK/FindOutNow.jpg","info","sub","2.93","","50","1","1","118","null","imgNWTK/KeepItSecret.jpg","imgNWTK/FindOutNow.jpg","imgNWTK/KeepItSecret.jpg","102","84","","",""
"9343","","","bandit-task-exp6","61","1390137","0.0-10.0-0.5","female","20","Australia ","15846","26149","imgNWTK/KeepItSecret.jpg","imgNWTK/FindOutNow.jpg","imgNWTK/KeepItSecret.jpg","imgNWTK/FindOutNow.jpg","info","sub","2.93","","51","2","1","0","null","imgNWTK/KeepItSecret.jpg","imgNWTK/FindOutNow.jpg","imgNWTK/FindOutNow.jpg","117","85","","",""
"6922","","","bandit-task-exp6","62","1419962","0.0-10.0-0.6","female","20","Australia ","15846","26149","imgNWTK/KeepItSecret.jpg","imgNWTK/FindOutNow.jpg","imgNWTK/KeepItSecret.jpg","imgNWTK/FindOutNow.jpg","info","sub","2.93","","52","1","1","114","null","imgNWTK/KeepItSecret.jpg","imgNWTK/FindOutNow.jpg","imgNWTK/KeepItSecret.jpg","115","80","","",""
"5111","","","bandit-task-exp6","63","1448814","0.0-10.0-0.7","female","20","Australia ","15846","26149","imgNWTK/KeepItSecret.jpg","imgNWTK/FindOutNow.jpg","imgNWTK/KeepItSecret.jpg","imgNWTK/FindOutNow.jpg","info","sub","2.93","","53","1","2","0","null","imgNWTK/KeepItSecret.jpg","imgNWTK/FindOutNow.jpg","imgNWTK/KeepItSecret.jpg","114","84","","",""
"5536","","","bandit-task-exp6","64","1476393","0.0-10.0-0.8","female","20","Australia ","15846","26149","imgNWTK/KeepItSecret.jpg","imgNWTK/FindOutNow.jpg","imgNWTK/KeepItSecret.jpg","imgNWTK/FindOutNow.jpg","info","sub","2.93","","54","1","2","0","null","imgNWTK/KeepItSecret.jpg","imgNWTK/FindOutNow.jpg","imgNWTK/KeepItSecret.jpg","114","84","","",""
"5891","","","bandit-task-exp6","65","1503985","0.0-10.0-0.9","female","20","Australia ","15846","26149","imgNWTK/KeepItSecret.jpg","imgNWTK/FindOutNow.jpg","imgNWTK/KeepItSecret.jpg","imgNWTK/FindOutNow.jpg","info","sub","2.93","","55","2","1","0","null","imgNWTK/KeepItSecret.jpg","imgNWTK/FindOutNow.jpg","imgNWTK/FindOutNow.jpg","100","84","","",""
"5687","","","bandit-task-exp6","66","1533327","0.0-10.0-0.10","female","20","Australia ","15846","26149","imgNWTK/KeepItSecret.jpg","imgNWTK/FindOutNow.jpg","imgNWTK/KeepItSecret.jpg","imgNWTK/FindOutNow.jpg","info","sub","2.93","","56","2","2","89","null","imgNWTK/FindOutNow.jpg","imgNWTK/KeepItSecret.jpg","imgNWTK/FindOutNow.jpg","84","114","","",""
"9019","","","bandit-task-exp6","67","1564398","0.0-10.0-0.11","female","20","Australia ","15846","26149","imgNWTK/KeepItSecret.jpg","imgNWTK/FindOutNow.jpg","imgNWTK/KeepItSecret.jpg","imgNWTK/FindOutNow.jpg","info","sub","2.93","","57","2","2","79","null","imgNWTK/FindOutNow.jpg","imgNWTK/KeepItSecret.jpg","imgNWTK/FindOutNow.jpg","110","84","","",""
"4760","","","bandit-task-exp6","68","1591886","0.0-10.0-0.12","female","20","Australia ","15846","26149","imgNWTK/KeepItSecret.jpg","imgNWTK/FindOutNow.jpg","imgNWTK/KeepItSecret.jpg","imgNWTK/FindOutNow.jpg","info","sub","2.93","","58","1","2","0","null","imgNWTK/KeepItSecret.jpg","imgNWTK/FindOutNow.jpg","imgNWTK/KeepItSecret.jpg","114","80","","",""
"5439","","","bandit-task-exp6","69","1619144","0.0-10.0-0.13","female","20","Australia ","15846","26149","imgNWTK/KeepItSecret.jpg","imgNWTK/FindOutNow.jpg","imgNWTK/KeepItSecret.jpg","imgNWTK/FindOutNow.jpg","info","sub","2.93","","59","2","2","81","null","imgNWTK/KeepItSecret.jpg","imgNWTK/FindOutNow.jpg","imgNWTK/FindOutNow.jpg","84","100","","",""
"6584","","","bandit-task-exp6","70","1651235","0.0-10.0-0.14","female","20","Australia ","15846","26149","imgNWTK/KeepItSecret.jpg","imgNWTK/FindOutNow.jpg","imgNWTK/KeepItSecret.jpg","imgNWTK/FindOutNow.jpg","info","sub","2.93","","60","2","1","0","null","imgNWTK/FindOutNow.jpg","imgNWTK/KeepItSecret.jpg","imgNWTK/FindOutNow.jpg","84","100","","",""
"3090","<p> Congratulations, you have finished the main part of the experiment. </p><p>Before you finish, we have a few short questions about the options and outcomes you saw in the task.</p>","0","html-button-response","71","1654327","0.0-11.0","female","20","Australia ","15846","26149","imgNWTK/KeepItSecret.jpg","imgNWTK/FindOutNow.jpg","imgNWTK/KeepItSecret.jpg","imgNWTK/FindOutNow.jpg","info","sub","2.93","","","","","","","","","","","","","",""
"20271","<p><b>Now, imagine that you clicked on the below button for another 10 trials (this includes <i> BOTH WIN and NO-WIN trials</i>).</p> <img src= 'imgNWTK/KeepItSecret.jpg'></img></br></br> <p><b>Please type the reward (number of points) you would expect to receive on every trial.</br> Click start to begin.</p>","0","html-button-response","72","1674600","0.0-12.0","female","20","Australia ","15846","26149","imgNWTK/KeepItSecret.jpg","imgNWTK/FindOutNow.jpg","imgNWTK/KeepItSecret.jpg","imgNWTK/FindOutNow.jpg","info","sub","2.93","","","","","","","","","","","","","",""
"11964.900000035763","","","survey-number","73","1686572","0.0-13.0-0.0","female","20","Australia ","15846","26149","imgNWTK/KeepItSecret.jpg","imgNWTK/FindOutNow.jpg","imgNWTK/KeepItSecret.jpg","imgNWTK/FindOutNow.jpg","info","sub","2.93","{""undefined"":""2""}","","","","","","","","","","","","imgNWTK/KeepItSecret.jpg",""
"1968.3999999761581","","","survey-number","74","1688546","0.0-13.0-0.1","female","20","Australia ","15846","26149","imgNWTK/KeepItSecret.jpg","imgNWTK/FindOutNow.jpg","imgNWTK/KeepItSecret.jpg","imgNWTK/FindOutNow.jpg","info","sub","2.93","{""undefined"":""2""}","","","","","","","","","","","","imgNWTK/KeepItSecret.jpg",""
"3602.100000023842","","","survey-number","75","1692152","0.0-13.0-0.2","female","20","Australia ","15846","26149","imgNWTK/KeepItSecret.jpg","imgNWTK/FindOutNow.jpg","imgNWTK/KeepItSecret.jpg","imgNWTK/FindOutNow.jpg","info","sub","2.93","{""undefined"":""4""}","","","","","","","","","","","","imgNWTK/KeepItSecret.jpg",""
"1034","","","survey-number","76","1693192","0.0-13.0-0.3","female","20","Australia ","15846","26149","imgNWTK/KeepItSecret.jpg","imgNWTK/FindOutNow.jpg","imgNWTK/KeepItSecret.jpg","imgNWTK/FindOutNow.jpg","info","sub","2.93","{""undefined"":""5""}","","","","","","","","","","","","imgNWTK/KeepItSecret.jpg",""
"460.89999997615814","","","survey-number","77","1693658","0.0-13.0-0.4","female","20","Australia ","15846","26149","imgNWTK/KeepItSecret.jpg","imgNWTK/FindOutNow.jpg","imgNWTK/KeepItSecret.jpg","imgNWTK/FindOutNow.jpg","info","sub","2.93","{""undefined"":""6""}","","","","","","","","","","","","imgNWTK/KeepItSecret.jpg",""
"746.6999999880791","","","survey-number","78","1694408","0.0-13.0-0.5","female","20","Australia ","15846","26149","imgNWTK/KeepItSecret.jpg","imgNWTK/FindOutNow.jpg","imgNWTK/KeepItSecret.jpg","imgNWTK/FindOutNow.jpg","info","sub","2.93","{""undefined"":""7""}","","","","","","","","","","","","imgNWTK/KeepItSecret.jpg",""
"392.69999998807907","","","survey-number","79","1694806","0.0-13.0-0.6","female","20","Australia ","15846","26149","imgNWTK/KeepItSecret.jpg","imgNWTK/FindOutNow.jpg","imgNWTK/KeepItSecret.jpg","imgNWTK/FindOutNow.jpg","info","sub","2.93","{""undefined"":""8""}","","","","","","","","","","","","imgNWTK/KeepItSecret.jpg",""
"541.4000000357628","","","survey-number","80","1695353","0.0-13.0-0.7","female","20","Australia ","15846","26149","imgNWTK/KeepItSecret.jpg","imgNWTK/FindOutNow.jpg","imgNWTK/KeepItSecret.jpg","imgNWTK/FindOutNow.jpg","info","sub","2.93","{""undefined"":""9""}","","","","","","","","","","","","imgNWTK/KeepItSecret.jpg",""
"948.6999999880791","","","survey-number","81","1696306","0.0-13.0-0.8","female","20","Australia ","15846","26149","imgNWTK/KeepItSecret.jpg","imgNWTK/FindOutNow.jpg","imgNWTK/KeepItSecret.jpg","imgNWTK/FindOutNow.jpg","info","sub","2.93","{""undefined"":""10""}","","","","","","","","","","","","imgNWTK/KeepItSecret.jpg",""
"1107.3999999761581","","","survey-number","82","1697418","0.0-13.0-0.9","female","20","Australia ","15846","26149","imgNWTK/KeepItSecret.jpg","imgNWTK/FindOutNow.jpg","imgNWTK/KeepItSecret.jpg","imgNWTK/FindOutNow.jpg","info","sub","2.93","{""undefined"":""1""}","","","","","","","","","","","","imgNWTK/KeepItSecret.jpg",""
"1315","<p><b>Imagine that you clicked on the below button for another 10 trials (this includes <i> both WIN and NO-WIN trials</i>).</p> <img src= 'imgNWTK/FindOutNow.jpg'></img></br></br> <p><b>Please type the reward (number of points) you would expect to receive on every trial.</br> Click start to begin.</p>","0","html-button-response","83","1698735","0.0-14.0","female","20","Australia ","15846","26149","imgNWTK/KeepItSecret.jpg","imgNWTK/FindOutNow.jpg","imgNWTK/KeepItSecret.jpg","imgNWTK/FindOutNow.jpg","info","sub","2.93","","","","","","","","","","","","","",""
"1023.8000000119209","","","survey-number","84","1699763","0.0-15.0-0.0","female","20","Australia ","15846","26149","imgNWTK/KeepItSecret.jpg","imgNWTK/FindOutNow.jpg","imgNWTK/KeepItSecret.jpg","imgNWTK/FindOutNow.jpg","info","sub","2.93","{""undefined"":""1""}","","","","","","","","","","","","imgNWTK/FindOutNow.jpg",""
"330.30000001192093","","","survey-number","85","1700098","0.0-15.0-0.1","female","20","Australia ","15846","26149","imgNWTK/KeepItSecret.jpg","imgNWTK/FindOutNow.jpg","imgNWTK/KeepItSecret.jpg","imgNWTK/FindOutNow.jpg","info","sub","2.93","{""undefined"":""2""}","","","","","","","","","","","","imgNWTK/FindOutNow.jpg",""
"324.7000000476837","","","survey-number","86","1700427","0.0-15.0-0.2","female","20","Australia ","15846","26149","imgNWTK/KeepItSecret.jpg","imgNWTK/FindOutNow.jpg","imgNWTK/KeepItSecret.jpg","imgNWTK/FindOutNow.jpg","info","sub","2.93","{""undefined"":""3""}","","","","","","","","","","","","imgNWTK/FindOutNow.jpg",""
"705.8000000119209","","","survey-number","87","1701137","0.0-15.0-0.3","female","20","Australia ","15846","26149","imgNWTK/KeepItSecret.jpg","imgNWTK/FindOutNow.jpg","imgNWTK/KeepItSecret.jpg","imgNWTK/FindOutNow.jpg","info","sub","2.93","{""undefined"":""4""}","","","","","","","","","","","","imgNWTK/FindOutNow.jpg",""
"341.2000000476837","","","survey-number","88","1701483","0.0-15.0-0.4","female","20","Australia ","15846","26149","imgNWTK/KeepItSecret.jpg","imgNWTK/FindOutNow.jpg","imgNWTK/KeepItSecret.jpg","imgNWTK/FindOutNow.jpg","info","sub","2.93","{""undefined"":""5""}","","","","","","","","","","","","imgNWTK/FindOutNow.jpg",""
"375.89999997615814","","","survey-number","89","1701863","0.0-15.0-0.5","female","20","Australia ","15846","26149","imgNWTK/KeepItSecret.jpg","imgNWTK/FindOutNow.jpg","imgNWTK/KeepItSecret.jpg","imgNWTK/FindOutNow.jpg","info","sub","2.93","{""undefined"":""6""}","","","","","","","","","","","","imgNWTK/FindOutNow.jpg",""
"360.30000001192093","","","survey-number","90","1702228","0.0-15.0-0.6","female","20","Australia ","15846","26149","imgNWTK/KeepItSecret.jpg","imgNWTK/FindOutNow.jpg","imgNWTK/KeepItSecret.jpg","imgNWTK/FindOutNow.jpg","info","sub","2.93","{""undefined"":""7""}","","","","","","","","","","","","imgNWTK/FindOutNow.jpg",""
"396.80000001192093","","","survey-number","91","1702628","0.0-15.0-0.7","female","20","Australia ","15846","26149","imgNWTK/KeepItSecret.jpg","imgNWTK/FindOutNow.jpg","imgNWTK/KeepItSecret.jpg","imgNWTK/FindOutNow.jpg","info","sub","2.93","{""undefined"":""8""}","","","","","","","","","","","","imgNWTK/FindOutNow.jpg",""
"340.5","","","survey-number","92","1702973","0.0-15.0-0.8","female","20","Australia ","15846","26149","imgNWTK/KeepItSecret.jpg","imgNWTK/FindOutNow.jpg","imgNWTK/KeepItSecret.jpg","imgNWTK/FindOutNow.jpg","info","sub","2.93","{""undefined"":""9""}","","","","","","","","","","","","imgNWTK/FindOutNow.jpg",""
"274.19999998807907","","","survey-number","93","1703251","0.0-15.0-0.9","female","20","Australia ","15846","26149","imgNWTK/KeepItSecret.jpg","imgNWTK/FindOutNow.jpg","imgNWTK/KeepItSecret.jpg","imgNWTK/FindOutNow.jpg","info","sub","2.93","{""undefined"":""0""}","","","","","","","","","","","","imgNWTK/FindOutNow.jpg",""
"19709.700000047684","","","survey-number","94","1722968","0.0-16.0","female","20","Australia ","15846","26149","imgNWTK/KeepItSecret.jpg","imgNWTK/FindOutNow.jpg","imgNWTK/KeepItSecret.jpg","imgNWTK/FindOutNow.jpg","info","sub","2.93","{""undefined"":""40""}","","","","","","","","","","","","","imgNWTK/KeepItSecret.jpg"
"2393.599999964237","","","survey-number","95","1725367","0.0-17.0","female","20","Australia ","15846","26149","imgNWTK/KeepItSecret.jpg","imgNWTK/FindOutNow.jpg","imgNWTK/KeepItSecret.jpg","imgNWTK/FindOutNow.jpg","info","sub","2.93","{""undefined"":""50""}","","","","","","","","","","","","","imgNWTK/FindOutNow.jpg"
"100355","<p style=""text-align:left;"">Great! We are almost at the end of the study... (Please do not close the browser window yet.)</p><p> Your final points balance is 2934, which equals to a bonus payment of $2.93. Please collect your payment from Mathews Building Room 721 (Mon-Fri 9am-5pm); please email amy.x.li@unsw.edu.au at least 24 hours prior to collection so that this is ready for you.</p><p style=""text-align:left;"">To view the debriefing form, please click <a href=""./imgNWTK/debrief_3205.pdf"" target=""_blank"">here</a> to download a copy.</p><p style=""text-align:left;"">Then, <b>please click the below button</b> to confirm that you have received your debrief and to complete the study. Upon clicking ""Finish!"", your SONA credit will be automatically assigned.</p>","0","html-button-response","96","1825725","0.0-18.0","female","20","Australia ","15846","26149","imgNWTK/KeepItSecret.jpg","imgNWTK/FindOutNow.jpg","imgNWTK/KeepItSecret.jpg","imgNWTK/FindOutNow.jpg","info","sub","2.93","","","","","","","","","","","","","",""
