"rt","stimulus","button_pressed","trial_type","trial_index","time_elapsed","internal_node_id","gender","age","language","PID","sona_id","subStim","optStim","stim1","stim2","infoCond","optimCond","bonus","responses","banditTrial","choice","cue","feedback","estimateData","leftOption","rightOption","choiceName","leftInput","rightInput","key_press","postQ","singleEst"
"6518","<p>Thank you for signing up to participate in SONA Study 465! <br> During this study, please focus on the experiment and refrain from activities such as:</p>- <b>Switching to other tabs on your browser (this will be monitored via the experiment)</br> - Using your mobile phone/cell phone</br> - Communicating with others</br></br></b><p>This way, you are helping to provide data that is useful for psychological research. We thank you for your cooperation!</p>","0","html-button-response","0","6532","0.0-0.0","female","18","Australia","69761","26028","imgNWTK/square.png","imgNWTK/triangle.png","imgNWTK/square.png","imgNWTK/triangle.png","noninfo","optim","3.16","","","","","","","","","","","","","",""
"1493","<p>Welcome to the experiment!</p><p>You will now read some instructions about the task. Press the 'Next' button to continue. </p>","0","html-button-response","1","8030","0.0-1.0","female","18","Australia","69761","26028","imgNWTK/square.png","imgNWTK/triangle.png","imgNWTK/square.png","imgNWTK/triangle.png","noninfo","optim","3.16","","","","","","","","","","","","","",""
"13557","<p> On each trial throughout the experiment you will choose between two options, </br>a <b>Black Square </b> and <b> Black Triangle </b>, as seen below.</p><div><div style= 'float: left; width: 300px; margin: 10px 10px;'><img src= 'imgNWTK/square.png'></img></div><div style= 'float: right; width: 300px; margin: 10px 10px;'><img src= 'imgNWTK/triangle.png'></img></div></div><br/><br/><br/><br/><br/><br/><br/><br/><br/><br/><br/><p>Each option results in winning points or receiving 0 points.</br>There is a 50% chance of either winning or receiving 0 points.</p><p>You won't receive the outcome until after a <b> 20 second delay</b>.</p>","0","html-button-response","2","21593","0.0-2.0-0.0","female","18","Australia","69761","26028","imgNWTK/square.png","imgNWTK/triangle.png","imgNWTK/square.png","imgNWTK/triangle.png","noninfo","optim","3.16","","","","","","","","","","","","","",""
"27038","<img src= 'imgNWTK/NonInfoDiagram.png'></img><p>As seen above, whether you choose the square or triangle, you will receive a coloured circle after the choice. </p> <p>This circle will be on screen for 20 seconds until you win points or receive 0 points.</p><p>The coloured circle depends on which option you chose. </br> In the above example, choosing a triangle leads to a green circle and choosing the square leads to a red circle.</p>Please note: the circles in your task will be different to the above colours.</br></br>","0","html-button-response","3","48635","0.0-2.0-1.0","female","18","Australia","69761","26028","imgNWTK/square.png","imgNWTK/triangle.png","imgNWTK/square.png","imgNWTK/triangle.png","noninfo","optim","3.16","","","","","","","","","","","","","",""
"14797","<img src= 'cues/winTrials_noInfo.png' width = '1200'></img><p>To reiterate, 50% of the outcomes of each option will be WIN TRIALS, and the other 50% will be NO-WIN TRIALS.","0","html-button-response","4","63442","0.0-2.0-2.0","female","18","Australia","69761","26028","imgNWTK/square.png","imgNWTK/triangle.png","imgNWTK/square.png","imgNWTK/triangle.png","noninfo","optim","3.16","","","","","","","","","","","","","",""
"19045","<p> There will be <b>four blocks</b> in the experiment.</br>You will be given a short 15 second break between each block.</p><p><b>The points and the options will remain the same between the blocks.</b></p>The blocks are there just to give you a small break.</br></br></br></br><p>The points you earn in the task are also equal to <b> actual money</b>.</br> <b>1000 points is equal to $1 AUD</b></p><p>This is the rate you will be paid at the experiment's end.","0","html-button-response","5","82492","0.0-2.0-3.0","female","18","Australia","69761","26028","imgNWTK/square.png","imgNWTK/triangle.png","imgNWTK/square.png","imgNWTK/triangle.png","noninfo","optim","3.16","","","","","","","","","","","","","",""
"10087","","","survey-multi-choice","6","92602","0.0-2.0-4.0","female","18","Australia","69761","26028","imgNWTK/square.png","imgNWTK/triangle.png","imgNWTK/square.png","imgNWTK/triangle.png","noninfo","optim","3.16","{""Q0"":""20 Seconds"",""Q1"":""True"",""Q2"":""Equally""}","","","","","","","","","","","","",""
"1364","<p> Well done, all your answers were correct! <br> The experiment is about to start now. <br/> Click start to continue, or email your researcher <b>(amy.x.li@unsw.edu.au)</b> if you have any questions before starting.","0","html-button-response","7","93993","0.0-3.0","female","18","Australia","69761","26028","imgNWTK/square.png","imgNWTK/triangle.png","imgNWTK/square.png","imgNWTK/triangle.png","noninfo","optim","3.16","","","","","","","","","","","","","",""
"3357","","","bandit-task-exp6","8","120212","0.0-4.0-0.0","female","18","Australia","69761","26028","imgNWTK/square.png","imgNWTK/triangle.png","imgNWTK/square.png","imgNWTK/triangle.png","noninfo","optim","3.16","","1","2","1","0","null","imgNWTK/square.png","imgNWTK/triangle.png","imgNWTK/triangle.png","NaN","NaN","","",""
"1352","","","bandit-task-exp6","9","144092","0.0-4.0-0.1","female","18","Australia","69761","26028","imgNWTK/square.png","imgNWTK/triangle.png","imgNWTK/square.png","imgNWTK/triangle.png","noninfo","optim","3.16","","2","1","2","0","null","imgNWTK/square.png","imgNWTK/triangle.png","imgNWTK/square.png","NaN","NaN","","",""
"717","","","bandit-task-exp6","10","167226","0.0-4.0-0.2","female","18","Australia","69761","26028","imgNWTK/square.png","imgNWTK/triangle.png","imgNWTK/square.png","imgNWTK/triangle.png","noninfo","optim","3.16","","3","1","2","0","null","imgNWTK/square.png","imgNWTK/triangle.png","imgNWTK/square.png","NaN","NaN","","",""
"726","","","bandit-task-exp6","11","190999","0.0-4.0-0.3","female","18","Australia","69761","26028","imgNWTK/square.png","imgNWTK/triangle.png","imgNWTK/square.png","imgNWTK/triangle.png","noninfo","optim","3.16","","4","2","1","0","null","imgNWTK/square.png","imgNWTK/triangle.png","imgNWTK/triangle.png","NaN","NaN","","",""
"1083","","","bandit-task-exp6","12","214410","0.0-4.0-0.4","female","18","Australia","69761","26028","imgNWTK/square.png","imgNWTK/triangle.png","imgNWTK/square.png","imgNWTK/triangle.png","noninfo","optim","3.16","","5","2","1","0","null","imgNWTK/triangle.png","imgNWTK/square.png","imgNWTK/triangle.png","NaN","NaN","","",""
"881","","","bandit-task-exp6","13","238443","0.0-4.0-0.5","female","18","Australia","69761","26028","imgNWTK/square.png","imgNWTK/triangle.png","imgNWTK/square.png","imgNWTK/triangle.png","noninfo","optim","3.16","","6","1","1","74","null","imgNWTK/triangle.png","imgNWTK/square.png","imgNWTK/square.png","NaN","NaN","","",""
"1591","","","bandit-task-exp6","14","262243","0.0-4.0-0.6","female","18","Australia","69761","26028","imgNWTK/square.png","imgNWTK/triangle.png","imgNWTK/square.png","imgNWTK/triangle.png","noninfo","optim","3.16","","7","1","2","0","null","imgNWTK/square.png","imgNWTK/triangle.png","imgNWTK/square.png","NaN","NaN","","",""
"611","","","bandit-task-exp6","15","285257","0.0-4.0-0.7","female","18","Australia","69761","26028","imgNWTK/square.png","imgNWTK/triangle.png","imgNWTK/square.png","imgNWTK/triangle.png","noninfo","optim","3.16","","8","1","1","83","null","imgNWTK/triangle.png","imgNWTK/square.png","imgNWTK/square.png","NaN","NaN","","",""
"1839","","","bandit-task-exp6","16","309891","0.0-4.0-0.8","female","18","Australia","69761","26028","imgNWTK/square.png","imgNWTK/triangle.png","imgNWTK/square.png","imgNWTK/triangle.png","noninfo","optim","3.16","","9","2","2","128","null","imgNWTK/square.png","imgNWTK/triangle.png","imgNWTK/triangle.png","NaN","NaN","","",""
"1893","","","bandit-task-exp6","17","334357","0.0-4.0-0.9","female","18","Australia","69761","26028","imgNWTK/square.png","imgNWTK/triangle.png","imgNWTK/square.png","imgNWTK/triangle.png","noninfo","optim","3.16","","10","2","1","0","null","imgNWTK/triangle.png","imgNWTK/square.png","imgNWTK/triangle.png","NaN","NaN","","",""
"1426","","","bandit-task-exp6","18","358676","0.0-4.0-0.10","female","18","Australia","69761","26028","imgNWTK/square.png","imgNWTK/triangle.png","imgNWTK/square.png","imgNWTK/triangle.png","noninfo","optim","3.16","","11","2","1","0","null","imgNWTK/square.png","imgNWTK/triangle.png","imgNWTK/triangle.png","NaN","NaN","","",""
"1078","","","bandit-task-exp6","19","382908","0.0-4.0-0.11","female","18","Australia","69761","26028","imgNWTK/square.png","imgNWTK/triangle.png","imgNWTK/square.png","imgNWTK/triangle.png","noninfo","optim","3.16","","12","2","2","128","null","imgNWTK/square.png","imgNWTK/triangle.png","imgNWTK/triangle.png","NaN","NaN","","",""
"923","","","bandit-task-exp6","20","405979","0.0-4.0-0.12","female","18","Australia","69761","26028","imgNWTK/square.png","imgNWTK/triangle.png","imgNWTK/square.png","imgNWTK/triangle.png","noninfo","optim","3.16","","13","1","2","0","null","imgNWTK/square.png","imgNWTK/triangle.png","imgNWTK/square.png","NaN","NaN","","",""
"529","","","bandit-task-exp6","21","429136","0.0-4.0-0.13","female","18","Australia","69761","26028","imgNWTK/square.png","imgNWTK/triangle.png","imgNWTK/square.png","imgNWTK/triangle.png","noninfo","optim","3.16","","14","2","2","113","null","imgNWTK/triangle.png","imgNWTK/square.png","imgNWTK/triangle.png","NaN","NaN","","",""
"660","","","bandit-task-exp6","22","452373","0.0-4.0-0.14","female","18","Australia","69761","26028","imgNWTK/square.png","imgNWTK/triangle.png","imgNWTK/square.png","imgNWTK/triangle.png","noninfo","optim","3.16","","15","2","1","0","null","imgNWTK/triangle.png","imgNWTK/square.png","imgNWTK/triangle.png","NaN","NaN","","",""
"null","<p><b> Congratulations, you have finished this block. </b> </p><p>Please take a short break before moving onto the next block.</p><p>The next block will start after a 15 second break.</p><b>Remember, the point rewards are the same between blocks","","html-keyboard-response","23","467385","0.0-5.0","female","18","Australia","69761","26028","imgNWTK/square.png","imgNWTK/triangle.png","imgNWTK/square.png","imgNWTK/triangle.png","noninfo","optim","3.16","","","","","","","","","","","","null","",""
"930","","","bandit-task-exp6","24","490658","0.0-6.0-0.0","female","18","Australia","69761","26028","imgNWTK/square.png","imgNWTK/triangle.png","imgNWTK/square.png","imgNWTK/triangle.png","noninfo","optim","3.16","","16","2","1","0","null","imgNWTK/square.png","imgNWTK/triangle.png","imgNWTK/triangle.png","NaN","NaN","","",""
"941","","","bandit-task-exp6","25","514778","0.0-6.0-0.1","female","18","Australia","69761","26028","imgNWTK/square.png","imgNWTK/triangle.png","imgNWTK/square.png","imgNWTK/triangle.png","noninfo","optim","3.16","","17","1","2","0","null","imgNWTK/triangle.png","imgNWTK/square.png","imgNWTK/square.png","NaN","NaN","","",""
"1149","","","bandit-task-exp6","26","537943","0.0-6.0-0.2","female","18","Australia","69761","26028","imgNWTK/square.png","imgNWTK/triangle.png","imgNWTK/square.png","imgNWTK/triangle.png","noninfo","optim","3.16","","18","1","2","0","null","imgNWTK/triangle.png","imgNWTK/square.png","imgNWTK/square.png","NaN","NaN","","",""
"910","","","bandit-task-exp6","27","561236","0.0-6.0-0.3","female","18","Australia","69761","26028","imgNWTK/square.png","imgNWTK/triangle.png","imgNWTK/square.png","imgNWTK/triangle.png","noninfo","optim","3.16","","19","2","2","120","null","imgNWTK/square.png","imgNWTK/triangle.png","imgNWTK/triangle.png","NaN","NaN","","",""
"1082","","","bandit-task-exp6","28","585096","0.0-6.0-0.4","female","18","Australia","69761","26028","imgNWTK/square.png","imgNWTK/triangle.png","imgNWTK/square.png","imgNWTK/triangle.png","noninfo","optim","3.16","","20","2","2","122","null","imgNWTK/square.png","imgNWTK/triangle.png","imgNWTK/triangle.png","NaN","NaN","","",""
"796","","","bandit-task-exp6","29","608509","0.0-6.0-0.5","female","18","Australia","69761","26028","imgNWTK/square.png","imgNWTK/triangle.png","imgNWTK/square.png","imgNWTK/triangle.png","noninfo","optim","3.16","","21","2","1","0","null","imgNWTK/triangle.png","imgNWTK/square.png","imgNWTK/triangle.png","NaN","NaN","","",""
"668","","","bandit-task-exp6","30","632010","0.0-6.0-0.6","female","18","Australia","69761","26028","imgNWTK/square.png","imgNWTK/triangle.png","imgNWTK/square.png","imgNWTK/triangle.png","noninfo","optim","3.16","","22","1","1","89","null","imgNWTK/triangle.png","imgNWTK/square.png","imgNWTK/square.png","NaN","NaN","","",""
"820","","","bandit-task-exp6","31","656823","0.0-6.0-0.7","female","18","Australia","69761","26028","imgNWTK/square.png","imgNWTK/triangle.png","imgNWTK/square.png","imgNWTK/triangle.png","noninfo","optim","3.16","","23","1","1","87","null","imgNWTK/triangle.png","imgNWTK/square.png","imgNWTK/square.png","NaN","NaN","","",""
"1440","","","bandit-task-exp6","32","680653","0.0-6.0-0.8","female","18","Australia","69761","26028","imgNWTK/square.png","imgNWTK/triangle.png","imgNWTK/square.png","imgNWTK/triangle.png","noninfo","optim","3.16","","24","1","2","0","null","imgNWTK/triangle.png","imgNWTK/square.png","imgNWTK/square.png","NaN","NaN","","",""
"1301","","","bandit-task-exp6","33","704771","0.0-6.0-0.9","female","18","Australia","69761","26028","imgNWTK/square.png","imgNWTK/triangle.png","imgNWTK/square.png","imgNWTK/triangle.png","noninfo","optim","3.16","","25","2","2","113","null","imgNWTK/triangle.png","imgNWTK/square.png","imgNWTK/triangle.png","NaN","NaN","","",""
"1224","","","bandit-task-exp6","34","728703","0.0-6.0-0.10","female","18","Australia","69761","26028","imgNWTK/square.png","imgNWTK/triangle.png","imgNWTK/square.png","imgNWTK/triangle.png","noninfo","optim","3.16","","26","2","2","114","null","imgNWTK/triangle.png","imgNWTK/square.png","imgNWTK/triangle.png","NaN","NaN","","",""
"1382","","","bandit-task-exp6","35","753387","0.0-6.0-0.11","female","18","Australia","69761","26028","imgNWTK/square.png","imgNWTK/triangle.png","imgNWTK/square.png","imgNWTK/triangle.png","noninfo","optim","3.16","","27","1","2","0","null","imgNWTK/triangle.png","imgNWTK/square.png","imgNWTK/square.png","NaN","NaN","","",""
"1174","","","bandit-task-exp6","36","777104","0.0-6.0-0.12","female","18","Australia","69761","26028","imgNWTK/square.png","imgNWTK/triangle.png","imgNWTK/square.png","imgNWTK/triangle.png","noninfo","optim","3.16","","28","2","2","122","null","imgNWTK/triangle.png","imgNWTK/square.png","imgNWTK/triangle.png","NaN","NaN","","",""
"1392","","","bandit-task-exp6","37","800953","0.0-6.0-0.13","female","18","Australia","69761","26028","imgNWTK/square.png","imgNWTK/triangle.png","imgNWTK/square.png","imgNWTK/triangle.png","noninfo","optim","3.16","","29","2","1","0","null","imgNWTK/square.png","imgNWTK/triangle.png","imgNWTK/triangle.png","NaN","NaN","","",""
"1075","","","bandit-task-exp6","38","824044","0.0-6.0-0.14","female","18","Australia","69761","26028","imgNWTK/square.png","imgNWTK/triangle.png","imgNWTK/square.png","imgNWTK/triangle.png","noninfo","optim","3.16","","30","1","2","0","null","imgNWTK/triangle.png","imgNWTK/square.png","imgNWTK/square.png","NaN","NaN","","",""
"null","<p><b> Congratulations, you have finished this block. </b> </p><p>Please take a short break before moving onto the next block.</p><p>The next block will start after a 15 second break.</p><b>Remember, the point rewards are the same between blocks","","html-keyboard-response","39","839049","0.0-7.0","female","18","Australia","69761","26028","imgNWTK/square.png","imgNWTK/triangle.png","imgNWTK/square.png","imgNWTK/triangle.png","noninfo","optim","3.16","","","","","","","","","","","","null","",""
"1439","","","bandit-task-exp6","40","862505","0.0-8.0-0.0","female","18","Australia","69761","26028","imgNWTK/square.png","imgNWTK/triangle.png","imgNWTK/square.png","imgNWTK/triangle.png","noninfo","optim","3.16","","31","2","1","0","null","imgNWTK/triangle.png","imgNWTK/square.png","imgNWTK/triangle.png","NaN","NaN","","",""
"807","","","bandit-task-exp6","41","885500","0.0-8.0-0.1","female","18","Australia","69761","26028","imgNWTK/square.png","imgNWTK/triangle.png","imgNWTK/square.png","imgNWTK/triangle.png","noninfo","optim","3.16","","32","1","2","0","null","imgNWTK/square.png","imgNWTK/triangle.png","imgNWTK/square.png","NaN","NaN","","",""
"1579","","","bandit-task-exp6","42","911101","0.0-8.0-0.2","female","18","Australia","69761","26028","imgNWTK/square.png","imgNWTK/triangle.png","imgNWTK/square.png","imgNWTK/triangle.png","noninfo","optim","3.16","","33","2","2","113","null","imgNWTK/square.png","imgNWTK/triangle.png","imgNWTK/triangle.png","NaN","NaN","","",""
"1129","","","bandit-task-exp6","43","935154","0.0-8.0-0.3","female","18","Australia","69761","26028","imgNWTK/square.png","imgNWTK/triangle.png","imgNWTK/square.png","imgNWTK/triangle.png","noninfo","optim","3.16","","34","2","2","118","null","imgNWTK/square.png","imgNWTK/triangle.png","imgNWTK/triangle.png","NaN","NaN","","",""
"1357","","","bandit-task-exp6","44","958436","0.0-8.0-0.4","female","18","Australia","69761","26028","imgNWTK/square.png","imgNWTK/triangle.png","imgNWTK/square.png","imgNWTK/triangle.png","noninfo","optim","3.16","","35","2","2","128","null","imgNWTK/triangle.png","imgNWTK/square.png","imgNWTK/triangle.png","NaN","NaN","","",""
"956","","","bandit-task-exp6","45","981665","0.0-8.0-0.5","female","18","Australia","69761","26028","imgNWTK/square.png","imgNWTK/triangle.png","imgNWTK/square.png","imgNWTK/triangle.png","noninfo","optim","3.16","","36","2","1","0","null","imgNWTK/triangle.png","imgNWTK/square.png","imgNWTK/triangle.png","NaN","NaN","","",""
"1621","","","bandit-task-exp6","46","1005630","0.0-8.0-0.6","female","18","Australia","69761","26028","imgNWTK/square.png","imgNWTK/triangle.png","imgNWTK/square.png","imgNWTK/triangle.png","noninfo","optim","3.16","","37","2","1","0","null","imgNWTK/square.png","imgNWTK/triangle.png","imgNWTK/triangle.png","NaN","NaN","","",""
"1245","","","bandit-task-exp6","47","1028901","0.0-8.0-0.7","female","18","Australia","69761","26028","imgNWTK/square.png","imgNWTK/triangle.png","imgNWTK/square.png","imgNWTK/triangle.png","noninfo","optim","3.16","","38","2","2","126","null","imgNWTK/triangle.png","imgNWTK/square.png","imgNWTK/triangle.png","NaN","NaN","","",""
"690","","","bandit-task-exp6","48","1051614","0.0-8.0-0.8","female","18","Australia","69761","26028","imgNWTK/square.png","imgNWTK/triangle.png","imgNWTK/square.png","imgNWTK/triangle.png","noninfo","optim","3.16","","39","2","2","125","null","imgNWTK/triangle.png","imgNWTK/square.png","imgNWTK/triangle.png","NaN","NaN","","",""
"610","","","bandit-task-exp6","49","1074323","0.0-8.0-0.9","female","18","Australia","69761","26028","imgNWTK/square.png","imgNWTK/triangle.png","imgNWTK/square.png","imgNWTK/triangle.png","noninfo","optim","3.16","","40","2","2","116","null","imgNWTK/triangle.png","imgNWTK/square.png","imgNWTK/triangle.png","NaN","NaN","","",""
"773","","","bandit-task-exp6","50","1097432","0.0-8.0-0.10","female","18","Australia","69761","26028","imgNWTK/square.png","imgNWTK/triangle.png","imgNWTK/square.png","imgNWTK/triangle.png","noninfo","optim","3.16","","41","2","1","0","null","imgNWTK/triangle.png","imgNWTK/square.png","imgNWTK/triangle.png","NaN","NaN","","",""
"985","","","bandit-task-exp6","51","1120618","0.0-8.0-0.11","female","18","Australia","69761","26028","imgNWTK/square.png","imgNWTK/triangle.png","imgNWTK/square.png","imgNWTK/triangle.png","noninfo","optim","3.16","","42","2","2","110","null","imgNWTK/square.png","imgNWTK/triangle.png","imgNWTK/triangle.png","NaN","NaN","","",""
"853","","","bandit-task-exp6","52","1143572","0.0-8.0-0.12","female","18","Australia","69761","26028","imgNWTK/square.png","imgNWTK/triangle.png","imgNWTK/square.png","imgNWTK/triangle.png","noninfo","optim","3.16","","43","2","2","127","null","imgNWTK/square.png","imgNWTK/triangle.png","imgNWTK/triangle.png","NaN","NaN","","",""
"996","","","bandit-task-exp6","53","1166540","0.0-8.0-0.13","female","18","Australia","69761","26028","imgNWTK/square.png","imgNWTK/triangle.png","imgNWTK/square.png","imgNWTK/triangle.png","noninfo","optim","3.16","","44","2","1","0","null","imgNWTK/triangle.png","imgNWTK/square.png","imgNWTK/triangle.png","NaN","NaN","","",""
"808","","","bandit-task-exp6","54","1189238","0.0-8.0-0.14","female","18","Australia","69761","26028","imgNWTK/square.png","imgNWTK/triangle.png","imgNWTK/square.png","imgNWTK/triangle.png","noninfo","optim","3.16","","45","2","1","0","null","imgNWTK/square.png","imgNWTK/triangle.png","imgNWTK/triangle.png","NaN","NaN","","",""
"null","<p><b> Congratulations, you have finished this block. </b> </p><p>Please take a short break before moving onto the next block.</p><p>The next block will start after a 15 second break.</p><b>Remember, the point rewards are the same between blocks","","html-keyboard-response","55","1204246","0.0-9.0","female","18","Australia","69761","26028","imgNWTK/square.png","imgNWTK/triangle.png","imgNWTK/square.png","imgNWTK/triangle.png","noninfo","optim","3.16","","","","","","","","","","","","null","",""
"30176","","","bandit-task-exp6","56","1258035","0.0-10.0-0.0","female","18","Australia","69761","26028","imgNWTK/square.png","imgNWTK/triangle.png","imgNWTK/square.png","imgNWTK/triangle.png","noninfo","optim","3.16","","46","2","2","128","null","imgNWTK/triangle.png","imgNWTK/square.png","imgNWTK/triangle.png","126","0","","",""
"12655","","","bandit-task-exp6","57","1292948","0.0-10.0-0.1","female","18","Australia","69761","26028","imgNWTK/square.png","imgNWTK/triangle.png","imgNWTK/square.png","imgNWTK/triangle.png","noninfo","optim","3.16","","47","2","1","0","null","imgNWTK/square.png","imgNWTK/triangle.png","imgNWTK/triangle.png","0","113","","",""
"7773","","","bandit-task-exp6","58","1323338","0.0-10.0-0.2","female","18","Australia","69761","26028","imgNWTK/square.png","imgNWTK/triangle.png","imgNWTK/square.png","imgNWTK/triangle.png","noninfo","optim","3.16","","48","2","2","110","null","imgNWTK/square.png","imgNWTK/triangle.png","imgNWTK/triangle.png","0","114","","",""
"8664","","","bandit-task-exp6","59","1354539","0.0-10.0-0.3","female","18","Australia","69761","26028","imgNWTK/square.png","imgNWTK/triangle.png","imgNWTK/square.png","imgNWTK/triangle.png","noninfo","optim","3.16","","49","2","1","0","null","imgNWTK/triangle.png","imgNWTK/square.png","imgNWTK/triangle.png","127","0","","",""
"15165","","","bandit-task-exp6","60","1393337","0.0-10.0-0.4","female","18","Australia","69761","26028","imgNWTK/square.png","imgNWTK/triangle.png","imgNWTK/square.png","imgNWTK/triangle.png","noninfo","optim","3.16","","50","1","2","0","null","imgNWTK/triangle.png","imgNWTK/square.png","imgNWTK/square.png","0","121","","",""
"6572","","","bandit-task-exp6","61","1422284","0.0-10.0-0.5","female","18","Australia","69761","26028","imgNWTK/square.png","imgNWTK/triangle.png","imgNWTK/square.png","imgNWTK/triangle.png","noninfo","optim","3.16","","51","2","2","129","null","imgNWTK/square.png","imgNWTK/triangle.png","imgNWTK/triangle.png","0","128","","",""
"6358","","","bandit-task-exp6","62","1450755","0.0-10.0-0.6","female","18","Australia","69761","26028","imgNWTK/square.png","imgNWTK/triangle.png","imgNWTK/square.png","imgNWTK/triangle.png","noninfo","optim","3.16","","52","2","1","0","null","imgNWTK/square.png","imgNWTK/triangle.png","imgNWTK/triangle.png","0","112","","",""
"6112","","","bandit-task-exp6","63","1479638","0.0-10.0-0.7","female","18","Australia","69761","26028","imgNWTK/square.png","imgNWTK/triangle.png","imgNWTK/square.png","imgNWTK/triangle.png","noninfo","optim","3.16","","53","2","2","113","null","imgNWTK/triangle.png","imgNWTK/square.png","imgNWTK/triangle.png","124","0","","",""
"15026","","","bandit-task-exp6","64","1517837","0.0-10.0-0.8","female","18","Australia","69761","26028","imgNWTK/square.png","imgNWTK/triangle.png","imgNWTK/square.png","imgNWTK/triangle.png","noninfo","optim","3.16","","54","2","2","111","null","imgNWTK/square.png","imgNWTK/triangle.png","imgNWTK/triangle.png","0","126","","",""
"7128","","","bandit-task-exp6","65","1546994","0.0-10.0-0.9","female","18","Australia","69761","26028","imgNWTK/square.png","imgNWTK/triangle.png","imgNWTK/square.png","imgNWTK/triangle.png","noninfo","optim","3.16","","55","2","1","0","null","imgNWTK/square.png","imgNWTK/triangle.png","imgNWTK/triangle.png","0","116","","",""
"6809","","","bandit-task-exp6","66","1575721","0.0-10.0-0.10","female","18","Australia","69761","26028","imgNWTK/square.png","imgNWTK/triangle.png","imgNWTK/square.png","imgNWTK/triangle.png","noninfo","optim","3.16","","56","2","2","119","null","imgNWTK/triangle.png","imgNWTK/square.png","imgNWTK/triangle.png","128","0","","",""
"5480","","","bandit-task-exp6","67","1603849","0.0-10.0-0.11","female","18","Australia","69761","26028","imgNWTK/square.png","imgNWTK/triangle.png","imgNWTK/square.png","imgNWTK/triangle.png","noninfo","optim","3.16","","57","2","1","0","null","imgNWTK/triangle.png","imgNWTK/square.png","imgNWTK/triangle.png","123","0","","",""
"4719","","","bandit-task-exp6","68","1630648","0.0-10.0-0.12","female","18","Australia","69761","26028","imgNWTK/square.png","imgNWTK/triangle.png","imgNWTK/square.png","imgNWTK/triangle.png","noninfo","optim","3.16","","58","2","1","0","null","imgNWTK/square.png","imgNWTK/triangle.png","imgNWTK/triangle.png","0","124","","",""
"5859","","","bandit-task-exp6","69","1659765","0.0-10.0-0.13","female","18","Australia","69761","26028","imgNWTK/square.png","imgNWTK/triangle.png","imgNWTK/square.png","imgNWTK/triangle.png","noninfo","optim","3.16","","59","2","2","112","null","imgNWTK/triangle.png","imgNWTK/square.png","imgNWTK/triangle.png","124","0","","",""
"11995","","","bandit-task-exp6","70","1694981","0.0-10.0-0.14","female","18","Australia","69761","26028","imgNWTK/square.png","imgNWTK/triangle.png","imgNWTK/square.png","imgNWTK/triangle.png","noninfo","optim","3.16","","60","1","1","80","null","imgNWTK/square.png","imgNWTK/triangle.png","imgNWTK/square.png","112","128","","",""
"2709","<p> Congratulations, you have finished the main part of the experiment. </p><p>Before you finish, we have a few short questions about the options and outcomes you saw in the task.</p>","0","html-button-response","71","1697695","0.0-11.0","female","18","Australia","69761","26028","imgNWTK/square.png","imgNWTK/triangle.png","imgNWTK/square.png","imgNWTK/triangle.png","noninfo","optim","3.16","","","","","","","","","","","","","",""
"9503","<p><b>Now, imagine that you clicked on the below button for another 10 trials (this includes <i> BOTH WIN and NO-WIN trials</i>).</p> <img src= 'imgNWTK/triangle.png'></img></br></br> <p><b>Please type the reward (number of points) you would expect to receive on every trial.</br> Click start to begin.</p>","0","html-button-response","72","1707203","0.0-12.0","female","18","Australia","69761","26028","imgNWTK/square.png","imgNWTK/triangle.png","imgNWTK/square.png","imgNWTK/triangle.png","noninfo","optim","3.16","","","","","","","","","","","","","",""
"8178.5","","","survey-number","73","1715432","0.0-13.0-0.0","female","18","Australia","69761","26028","imgNWTK/square.png","imgNWTK/triangle.png","imgNWTK/square.png","imgNWTK/triangle.png","noninfo","optim","3.16","{""undefined"":""128""}","","","","","","","","","","","","imgNWTK/triangle.png",""
"5713.5","","","survey-number","74","1721184","0.0-13.0-0.1","female","18","Australia","69761","26028","imgNWTK/square.png","imgNWTK/triangle.png","imgNWTK/square.png","imgNWTK/triangle.png","noninfo","optim","3.16","{""undefined"":""114""}","","","","","","","","","","","","imgNWTK/triangle.png",""
"1507.9000000953674","","","survey-number","75","1722714","0.0-13.0-0.2","female","18","Australia","69761","26028","imgNWTK/square.png","imgNWTK/triangle.png","imgNWTK/square.png","imgNWTK/triangle.png","noninfo","optim","3.16","{""undefined"":""0""}","","","","","","","","","","","","imgNWTK/triangle.png",""
"1829.8999999761581","","","survey-number","76","1724569","0.0-13.0-0.3","female","18","Australia","69761","26028","imgNWTK/square.png","imgNWTK/triangle.png","imgNWTK/square.png","imgNWTK/triangle.png","noninfo","optim","3.16","{""undefined"":""0""}","","","","","","","","","","","","imgNWTK/triangle.png",""
"5274.800000071526","","","survey-number","77","1729875","0.0-13.0-0.4","female","18","Australia","69761","26028","imgNWTK/square.png","imgNWTK/triangle.png","imgNWTK/square.png","imgNWTK/triangle.png","noninfo","optim","3.16","{""undefined"":""124""}","","","","","","","","","","","","imgNWTK/triangle.png",""
"2327.399999976158","","","survey-number","78","1732230","0.0-13.0-0.5","female","18","Australia","69761","26028","imgNWTK/square.png","imgNWTK/triangle.png","imgNWTK/square.png","imgNWTK/triangle.png","noninfo","optim","3.16","{""undefined"":""0""}","","","","","","","","","","","","imgNWTK/triangle.png",""
"4985.799999952316","","","survey-number","79","1737248","0.0-13.0-0.6","female","18","Australia","69761","26028","imgNWTK/square.png","imgNWTK/triangle.png","imgNWTK/square.png","imgNWTK/triangle.png","noninfo","optim","3.16","{""undefined"":""118""}","","","","","","","","","","","","imgNWTK/triangle.png",""
"3742.4000000953674","","","survey-number","80","1741018","0.0-13.0-0.7","female","18","Australia","69761","26028","imgNWTK/square.png","imgNWTK/triangle.png","imgNWTK/square.png","imgNWTK/triangle.png","noninfo","optim","3.16","{""undefined"":""114""}","","","","","","","","","","","","imgNWTK/triangle.png",""
"2401.7000000476837","","","survey-number","81","1743452","0.0-13.0-0.8","female","18","Australia","69761","26028","imgNWTK/square.png","imgNWTK/triangle.png","imgNWTK/square.png","imgNWTK/triangle.png","noninfo","optim","3.16","{""undefined"":""0""}","","","","","","","","","","","","imgNWTK/triangle.png",""
"4106.399999976158","","","survey-number","82","1747596","0.0-13.0-0.9","female","18","Australia","69761","26028","imgNWTK/square.png","imgNWTK/triangle.png","imgNWTK/square.png","imgNWTK/triangle.png","noninfo","optim","3.16","{""undefined"":""0""}","","","","","","","","","","","","imgNWTK/triangle.png",""
"2060","<p><b>Imagine that you clicked on the below button for another 10 trials (this includes <i> both WIN and NO-WIN trials</i>).</p> <img src= 'imgNWTK/square.png'></img></br></br> <p><b>Please type the reward (number of points) you would expect to receive on every trial.</br> Click start to begin.</p>","0","html-button-response","83","1749662","0.0-14.0","female","18","Australia","69761","26028","imgNWTK/square.png","imgNWTK/triangle.png","imgNWTK/square.png","imgNWTK/triangle.png","noninfo","optim","3.16","","","","","","","","","","","","","",""
"3546.2000000476837","","","survey-number","84","1753244","0.0-15.0-0.0","female","18","Australia","69761","26028","imgNWTK/square.png","imgNWTK/triangle.png","imgNWTK/square.png","imgNWTK/triangle.png","noninfo","optim","3.16","{""undefined"":""0""}","","","","","","","","","","","","imgNWTK/square.png",""
"1068.2999999523163","","","survey-number","85","1754334","0.0-15.0-0.1","female","18","Australia","69761","26028","imgNWTK/square.png","imgNWTK/triangle.png","imgNWTK/square.png","imgNWTK/triangle.png","noninfo","optim","3.16","{""undefined"":""0""}","","","","","","","","","","","","imgNWTK/square.png",""
"1340.2000000476837","","","survey-number","86","1755701","0.0-15.0-0.2","female","18","Australia","69761","26028","imgNWTK/square.png","imgNWTK/triangle.png","imgNWTK/square.png","imgNWTK/triangle.png","noninfo","optim","3.16","{""undefined"":""0""}","","","","","","","","","","","","imgNWTK/square.png",""
"880.6000000238419","","","survey-number","87","1756604","0.0-15.0-0.3","female","18","Australia","69761","26028","imgNWTK/square.png","imgNWTK/triangle.png","imgNWTK/square.png","imgNWTK/triangle.png","noninfo","optim","3.16","{""undefined"":""0""}","","","","","","","","","","","","imgNWTK/square.png",""
"1134.2999999523163","","","survey-number","88","1757765","0.0-15.0-0.4","female","18","Australia","69761","26028","imgNWTK/square.png","imgNWTK/triangle.png","imgNWTK/square.png","imgNWTK/triangle.png","noninfo","optim","3.16","{""undefined"":""0""}","","","","","","","","","","","","imgNWTK/square.png",""
"1945.5","","","survey-number","89","1759736","0.0-15.0-0.5","female","18","Australia","69761","26028","imgNWTK/square.png","imgNWTK/triangle.png","imgNWTK/square.png","imgNWTK/triangle.png","noninfo","optim","3.16","{""undefined"":""80""}","","","","","","","","","","","","imgNWTK/square.png",""
"1358.2999999523163","","","survey-number","90","1761125","0.0-15.0-0.6","female","18","Australia","69761","26028","imgNWTK/square.png","imgNWTK/triangle.png","imgNWTK/square.png","imgNWTK/triangle.png","noninfo","optim","3.16","{""undefined"":""0""}","","","","","","","","","","","","imgNWTK/square.png",""
"1791.5","","","survey-number","91","1762945","0.0-15.0-0.7","female","18","Australia","69761","26028","imgNWTK/square.png","imgNWTK/triangle.png","imgNWTK/square.png","imgNWTK/triangle.png","noninfo","optim","3.16","{""undefined"":""0""}","","","","","","","","","","","","imgNWTK/square.png",""
"1775.2999999523163","","","survey-number","92","1764744","0.0-15.0-0.8","female","18","Australia","69761","26028","imgNWTK/square.png","imgNWTK/triangle.png","imgNWTK/square.png","imgNWTK/triangle.png","noninfo","optim","3.16","{""undefined"":""0""}","","","","","","","","","","","","imgNWTK/square.png",""
"3114.5","","","survey-number","93","1767883","0.0-15.0-0.9","female","18","Australia","69761","26028","imgNWTK/square.png","imgNWTK/triangle.png","imgNWTK/square.png","imgNWTK/triangle.png","noninfo","optim","3.16","{""undefined"":""85""}","","","","","","","","","","","","imgNWTK/square.png",""
"15229.600000023842","","","survey-number","94","1783171","0.0-16.0","female","18","Australia","69761","26028","imgNWTK/square.png","imgNWTK/triangle.png","imgNWTK/square.png","imgNWTK/triangle.png","noninfo","optim","3.16","{""undefined"":""80""}","","","","","","","","","","","","","imgNWTK/square.png"
"6398.100000023842","","","survey-number","95","1789602","0.0-17.0","female","18","Australia","69761","26028","imgNWTK/square.png","imgNWTK/triangle.png","imgNWTK/square.png","imgNWTK/triangle.png","noninfo","optim","3.16","{""undefined"":""120""}","","","","","","","","","","","","","imgNWTK/triangle.png"
"46560","<p style=""text-align:left;"">Great! We are almost at the end of the study... (Please do not close the browser window yet.)</p><p> Your final points balance is 3158, which equals to a bonus payment of $3.16. Please collect your payment from Mathews Building Room 721 (Mon-Fri 9am-5pm); please email amy.x.li@unsw.edu.au at least 24 hours prior to collection so that this is ready for you.</p><p style=""text-align:left;"">To view the debriefing form, please click <a href=""./imgNWTK/debrief_3205.pdf"" target=""_blank"">here</a> to download a copy.</p><p style=""text-align:left;"">Then, <b>please click the below button</b> to confirm that you have received your debrief and to complete the study. Upon clicking ""Finish!"", your SONA credit will be automatically assigned.</p>","0","html-button-response","96","1836175","0.0-18.0","female","18","Australia","69761","26028","imgNWTK/square.png","imgNWTK/triangle.png","imgNWTK/square.png","imgNWTK/triangle.png","noninfo","optim","3.16","","","","","","","","","","","","","",""
