"rt","stimulus","button_pressed","trial_type","trial_index","time_elapsed","internal_node_id","gender","age","language","PID","sona_id","subStim","optStim","stim1","stim2","infoCond","optimCond","bonus","responses","banditTrial","choice","cue","feedback","estimateData","leftOption","rightOption","choiceName","leftInput","rightInput","key_press","postQ","singleEst"
"17138","<p>Thank you for signing up to participate in SONA Study 465! <br> During this study, please focus on the experiment and refrain from activities such as:</p>- <b>Switching to other tabs on your browser (this will be monitored via the experiment)</br> - Using your mobile phone/cell phone</br> - Communicating with others</br></br></b><p>This way, you are helping to provide data that is useful for psychological research. We thank you for your cooperation!</p>","0","html-button-response","0","17140","0.0-0.0","male","21","Australia","15235","26179","neither","neither","imgNWTK/KeepItSecret.jpg","imgNWTK/FindOutNow.jpg","info","eq","3.11","","","","","","","","","","","","","",""
"5330","<p>Welcome to the experiment!</p><p>You will now read some instructions about the task. Press the 'Next' button to continue. </p>","0","html-button-response","1","22470","0.0-1.0","male","21","Australia","15235","26179","neither","neither","imgNWTK/KeepItSecret.jpg","imgNWTK/FindOutNow.jpg","info","eq","3.11","","","","","","","","","","","","","",""
"27738","<p> On each trial throughout the experiment you will choose between the options </br><b> Find Out Now </b> and <b> Keep It Secret </b>, as shown below.</p><div><div style= 'float: left; width: 300px; margin: 10px 10px;'><img src= 'imgNWTK/KeepItSecret.jpg'></img></div><div style= 'float: right; width: 300px; margin: 10px 10px;'><img src= 'imgNWTK/FindOutNow.jpg'></img></div></div><br/><br/><br/><br/><br/><br/><br/><br/><br/><br/><br/><p>Each option results in winning points or receiving 0 points.</br>There is a 50% chance of either winning or receiving 0 points.</p><p>You won't receive the outcome until after a <b> 20 second delay</b>. However, selecting the Find Out Now option will allow you to find out about the outcome early, whereas the Keep It Secret option will not. </p>","0","html-button-response","2","50209","0.0-2.0-0.0","male","21","Australia","15235","26179","neither","neither","imgNWTK/KeepItSecret.jpg","imgNWTK/FindOutNow.jpg","info","eq","3.11","","","","","","","","","","","","","",""
"51836","<img src= 'cues/Experiment6.png'></img><p>As seen above, when choosing the <b>'Find Out Now'</b> option, you will receive either a happy face or sad face.</br>The happy face means you will win points after the delay, whereas the sad face means you will receive 0 points.</br></p><p> When choosing the <b> 'Keep it Secret' </b> option you will receive a confused face.</br> This face appears regardless of whether you are going to win points or not. </p>In short, choosing 'Find Out Now' allows you to find out the outcome before you experience it (after the delay).</br></br>","0","html-button-response","3","102047","0.0-2.0-1.0","male","21","Australia","15235","26179","neither","neither","imgNWTK/KeepItSecret.jpg","imgNWTK/FindOutNow.jpg","info","eq","3.11","","","","","","","","","","","","","",""
"11515","<img src= 'cues/winTrials_info.png' width = '1200'></img><p>To reiterate, 50% of the outcomes of each option will be WIN TRIALS, and the other 50% will be NO-WIN TRIALS.","0","html-button-response","4","113562","0.0-2.0-2.0","male","21","Australia","15235","26179","neither","neither","imgNWTK/KeepItSecret.jpg","imgNWTK/FindOutNow.jpg","info","eq","3.11","","","","","","","","","","","","","",""
"20907","<p> There will be <b>four blocks</b> in the experiment.</br>You will be given a short 15 second break between each block.</p><p><b>The points and the options will remain the same between the blocks.</b></p>The blocks are there just to give you a small break.</br></br><p>The points you earn in the task are also equal to <b> actual money</b>.</br> <b>1000 points is equal to $1.</b></p><p>This is the rate you will be paid at the experiment's end.","0","html-button-response","5","134470","0.0-2.0-3.0","male","21","Australia","15235","26179","neither","neither","imgNWTK/KeepItSecret.jpg","imgNWTK/FindOutNow.jpg","info","eq","3.11","","","","","","","","","","","","","",""
"13443","","","survey-multi-choice","6","147918","0.0-2.0-4.0","male","21","Australia","15235","26179","neither","neither","imgNWTK/KeepItSecret.jpg","imgNWTK/FindOutNow.jpg","info","eq","3.11","{""Q0"":""20 Seconds"",""Q1"":""True"",""Q2"":""Equally"",""Q3"":""True""}","","","","","","","","","","","","",""
"1580","<p> Well done, all your answers were correct! <br> The experiment is about to start now. <br/> Click start to continue, or email your researcher <b>(amy.x.li@unsw.edu.au)</b> if you have any questions before starting.","0","html-button-response","7","149501","0.0-3.0","male","21","Australia","15235","26179","neither","neither","imgNWTK/KeepItSecret.jpg","imgNWTK/FindOutNow.jpg","info","eq","3.11","","","","","","","","","","","","","",""
"2660","","","bandit-task-exp6","8","175427","0.0-4.0-0.0","male","21","Australia","15235","26179","neither","neither","imgNWTK/KeepItSecret.jpg","imgNWTK/FindOutNow.jpg","info","eq","3.11","","1","1","2","0","null","imgNWTK/KeepItSecret.jpg","imgNWTK/FindOutNow.jpg","imgNWTK/KeepItSecret.jpg","NaN","NaN","","",""
"1140","","","bandit-task-exp6","9","198643","0.0-4.0-0.1","male","21","Australia","15235","26179","neither","neither","imgNWTK/KeepItSecret.jpg","imgNWTK/FindOutNow.jpg","info","eq","3.11","","2","2","2","101","null","imgNWTK/KeepItSecret.jpg","imgNWTK/FindOutNow.jpg","imgNWTK/FindOutNow.jpg","NaN","NaN","","",""
"3734","","","bandit-task-exp6","10","224175","0.0-4.0-0.2","male","21","Australia","15235","26179","neither","neither","imgNWTK/KeepItSecret.jpg","imgNWTK/FindOutNow.jpg","info","eq","3.11","","3","2","1","0","null","imgNWTK/FindOutNow.jpg","imgNWTK/KeepItSecret.jpg","imgNWTK/FindOutNow.jpg","NaN","NaN","","",""
"1090","","","bandit-task-exp6","11","247690","0.0-4.0-0.3","male","21","Australia","15235","26179","neither","neither","imgNWTK/KeepItSecret.jpg","imgNWTK/FindOutNow.jpg","info","eq","3.11","","4","1","1","107","null","imgNWTK/FindOutNow.jpg","imgNWTK/KeepItSecret.jpg","imgNWTK/KeepItSecret.jpg","NaN","NaN","","",""
"4986","","","bandit-task-exp6","12","275590","0.0-4.0-0.4","male","21","Australia","15235","26179","neither","neither","imgNWTK/KeepItSecret.jpg","imgNWTK/FindOutNow.jpg","info","eq","3.11","","5","1","1","93","null","imgNWTK/FindOutNow.jpg","imgNWTK/KeepItSecret.jpg","imgNWTK/KeepItSecret.jpg","NaN","NaN","","",""
"2006","","","bandit-task-exp6","13","299565","0.0-4.0-0.5","male","21","Australia","15235","26179","neither","neither","imgNWTK/KeepItSecret.jpg","imgNWTK/FindOutNow.jpg","info","eq","3.11","","6","2","1","0","null","imgNWTK/KeepItSecret.jpg","imgNWTK/FindOutNow.jpg","imgNWTK/FindOutNow.jpg","NaN","NaN","","",""
"1125","","","bandit-task-exp6","14","322473","0.0-4.0-0.6","male","21","Australia","15235","26179","neither","neither","imgNWTK/KeepItSecret.jpg","imgNWTK/FindOutNow.jpg","info","eq","3.11","","7","2","1","0","null","imgNWTK/KeepItSecret.jpg","imgNWTK/FindOutNow.jpg","imgNWTK/FindOutNow.jpg","NaN","NaN","","",""
"1459","","","bandit-task-exp6","15","345919","0.0-4.0-0.7","male","21","Australia","15235","26179","neither","neither","imgNWTK/KeepItSecret.jpg","imgNWTK/FindOutNow.jpg","info","eq","3.11","","8","2","2","109","null","imgNWTK/FindOutNow.jpg","imgNWTK/KeepItSecret.jpg","imgNWTK/FindOutNow.jpg","NaN","NaN","","",""
"1323","","","bandit-task-exp6","16","369048","0.0-4.0-0.8","male","21","Australia","15235","26179","neither","neither","imgNWTK/KeepItSecret.jpg","imgNWTK/FindOutNow.jpg","info","eq","3.11","","9","2","1","0","null","imgNWTK/KeepItSecret.jpg","imgNWTK/FindOutNow.jpg","imgNWTK/FindOutNow.jpg","NaN","NaN","","",""
"1034","","","bandit-task-exp6","17","392085","0.0-4.0-0.9","male","21","Australia","15235","26179","neither","neither","imgNWTK/KeepItSecret.jpg","imgNWTK/FindOutNow.jpg","info","eq","3.11","","10","1","1","97","null","imgNWTK/FindOutNow.jpg","imgNWTK/KeepItSecret.jpg","imgNWTK/KeepItSecret.jpg","NaN","NaN","","",""
"1650","","","bandit-task-exp6","18","415618","0.0-4.0-0.10","male","21","Australia","15235","26179","neither","neither","imgNWTK/KeepItSecret.jpg","imgNWTK/FindOutNow.jpg","info","eq","3.11","","11","1","2","0","null","imgNWTK/FindOutNow.jpg","imgNWTK/KeepItSecret.jpg","imgNWTK/KeepItSecret.jpg","NaN","NaN","","",""
"1396","","","bandit-task-exp6","19","438824","0.0-4.0-0.11","male","21","Australia","15235","26179","neither","neither","imgNWTK/KeepItSecret.jpg","imgNWTK/FindOutNow.jpg","info","eq","3.11","","12","1","1","109","null","imgNWTK/KeepItSecret.jpg","imgNWTK/FindOutNow.jpg","imgNWTK/KeepItSecret.jpg","NaN","NaN","","",""
"1143","","","bandit-task-exp6","20","461709","0.0-4.0-0.12","male","21","Australia","15235","26179","neither","neither","imgNWTK/KeepItSecret.jpg","imgNWTK/FindOutNow.jpg","info","eq","3.11","","13","1","2","0","null","imgNWTK/FindOutNow.jpg","imgNWTK/KeepItSecret.jpg","imgNWTK/KeepItSecret.jpg","NaN","NaN","","",""
"1970","","","bandit-task-exp6","21","485450","0.0-4.0-0.13","male","21","Australia","15235","26179","neither","neither","imgNWTK/KeepItSecret.jpg","imgNWTK/FindOutNow.jpg","info","eq","3.11","","14","2","2","96","null","imgNWTK/FindOutNow.jpg","imgNWTK/KeepItSecret.jpg","imgNWTK/FindOutNow.jpg","NaN","NaN","","",""
"1664","","","bandit-task-exp6","22","510428","0.0-4.0-0.14","male","21","Australia","15235","26179","neither","neither","imgNWTK/KeepItSecret.jpg","imgNWTK/FindOutNow.jpg","info","eq","3.11","","15","1","2","0","null","imgNWTK/KeepItSecret.jpg","imgNWTK/FindOutNow.jpg","imgNWTK/KeepItSecret.jpg","NaN","NaN","","",""
"null","<p><b> Congratulations, you have finished this block. </b> </p><p>Please take a short break before moving onto the next block.</p><p>The next block will start after a 15 second break.</p><b>Remember, the point rewards are the same between blocks","","html-keyboard-response","23","525432","0.0-5.0","male","21","Australia","15235","26179","neither","neither","imgNWTK/KeepItSecret.jpg","imgNWTK/FindOutNow.jpg","info","eq","3.11","","","","","","","","","","","","null","",""
"2831","","","bandit-task-exp6","24","551364","0.0-6.0-0.0","male","21","Australia","15235","26179","neither","neither","imgNWTK/KeepItSecret.jpg","imgNWTK/FindOutNow.jpg","info","eq","3.11","","16","1","1","102","null","imgNWTK/KeepItSecret.jpg","imgNWTK/FindOutNow.jpg","imgNWTK/KeepItSecret.jpg","NaN","NaN","","",""
"1321","","","bandit-task-exp6","25","577540","0.0-6.0-0.1","male","21","Australia","15235","26179","neither","neither","imgNWTK/KeepItSecret.jpg","imgNWTK/FindOutNow.jpg","info","eq","3.11","","17","1","2","0","null","imgNWTK/FindOutNow.jpg","imgNWTK/KeepItSecret.jpg","imgNWTK/KeepItSecret.jpg","NaN","NaN","","",""
"1258","","","bandit-task-exp6","26","601266","0.0-6.0-0.2","male","21","Australia","15235","26179","neither","neither","imgNWTK/KeepItSecret.jpg","imgNWTK/FindOutNow.jpg","info","eq","3.11","","18","1","1","99","null","imgNWTK/FindOutNow.jpg","imgNWTK/KeepItSecret.jpg","imgNWTK/KeepItSecret.jpg","NaN","NaN","","",""
"974","","","bandit-task-exp6","27","624239","0.0-6.0-0.3","male","21","Australia","15235","26179","neither","neither","imgNWTK/KeepItSecret.jpg","imgNWTK/FindOutNow.jpg","info","eq","3.11","","19","1","2","0","null","imgNWTK/FindOutNow.jpg","imgNWTK/KeepItSecret.jpg","imgNWTK/KeepItSecret.jpg","NaN","NaN","","",""
"1019","","","bandit-task-exp6","28","648040","0.0-6.0-0.4","male","21","Australia","15235","26179","neither","neither","imgNWTK/KeepItSecret.jpg","imgNWTK/FindOutNow.jpg","info","eq","3.11","","20","2","2","96","null","imgNWTK/FindOutNow.jpg","imgNWTK/KeepItSecret.jpg","imgNWTK/FindOutNow.jpg","NaN","NaN","","",""
"1086","","","bandit-task-exp6","29","672033","0.0-6.0-0.5","male","21","Australia","15235","26179","neither","neither","imgNWTK/KeepItSecret.jpg","imgNWTK/FindOutNow.jpg","info","eq","3.11","","21","1","1","96","null","imgNWTK/KeepItSecret.jpg","imgNWTK/FindOutNow.jpg","imgNWTK/KeepItSecret.jpg","NaN","NaN","","",""
"992","","","bandit-task-exp6","30","694586","0.0-6.0-0.6","male","21","Australia","15235","26179","neither","neither","imgNWTK/KeepItSecret.jpg","imgNWTK/FindOutNow.jpg","info","eq","3.11","","22","2","2","106","null","imgNWTK/FindOutNow.jpg","imgNWTK/KeepItSecret.jpg","imgNWTK/FindOutNow.jpg","NaN","NaN","","",""
"1754","","","bandit-task-exp6","31","726345","0.0-6.0-0.7","male","21","Australia","15235","26179","neither","neither","imgNWTK/KeepItSecret.jpg","imgNWTK/FindOutNow.jpg","info","eq","3.11","","23","2","2","102","null","imgNWTK/KeepItSecret.jpg","imgNWTK/FindOutNow.jpg","imgNWTK/FindOutNow.jpg","NaN","NaN","","",""
"1198","","","bandit-task-exp6","32","754775","0.0-6.0-0.8","male","21","Australia","15235","26179","neither","neither","imgNWTK/KeepItSecret.jpg","imgNWTK/FindOutNow.jpg","info","eq","3.11","","24","2","2","96","null","imgNWTK/FindOutNow.jpg","imgNWTK/KeepItSecret.jpg","imgNWTK/FindOutNow.jpg","NaN","NaN","","",""
"1038","","","bandit-task-exp6","33","777530","0.0-6.0-0.9","male","21","Australia","15235","26179","neither","neither","imgNWTK/KeepItSecret.jpg","imgNWTK/FindOutNow.jpg","info","eq","3.11","","25","2","1","0","null","imgNWTK/FindOutNow.jpg","imgNWTK/KeepItSecret.jpg","imgNWTK/FindOutNow.jpg","NaN","NaN","","",""
"1295","","","bandit-task-exp6","34","808264","0.0-6.0-0.10","male","21","Australia","15235","26179","neither","neither","imgNWTK/KeepItSecret.jpg","imgNWTK/FindOutNow.jpg","info","eq","3.11","","26","2","1","0","null","imgNWTK/FindOutNow.jpg","imgNWTK/KeepItSecret.jpg","imgNWTK/FindOutNow.jpg","NaN","NaN","","",""
"1429","","","bandit-task-exp6","35","832100","0.0-6.0-0.11","male","21","Australia","15235","26179","neither","neither","imgNWTK/KeepItSecret.jpg","imgNWTK/FindOutNow.jpg","info","eq","3.11","","27","2","2","100","null","imgNWTK/KeepItSecret.jpg","imgNWTK/FindOutNow.jpg","imgNWTK/FindOutNow.jpg","NaN","NaN","","",""
"1147","","","bandit-task-exp6","36","858110","0.0-6.0-0.12","male","21","Australia","15235","26179","neither","neither","imgNWTK/KeepItSecret.jpg","imgNWTK/FindOutNow.jpg","info","eq","3.11","","28","1","2","0","null","imgNWTK/KeepItSecret.jpg","imgNWTK/FindOutNow.jpg","imgNWTK/KeepItSecret.jpg","NaN","NaN","","",""
"1616","","","bandit-task-exp6","37","883147","0.0-6.0-0.13","male","21","Australia","15235","26179","neither","neither","imgNWTK/KeepItSecret.jpg","imgNWTK/FindOutNow.jpg","info","eq","3.11","","29","2","1","0","null","imgNWTK/KeepItSecret.jpg","imgNWTK/FindOutNow.jpg","imgNWTK/FindOutNow.jpg","NaN","NaN","","",""
"944","","","bandit-task-exp6","38","909779","0.0-6.0-0.14","male","21","Australia","15235","26179","neither","neither","imgNWTK/KeepItSecret.jpg","imgNWTK/FindOutNow.jpg","info","eq","3.11","","30","2","2","110","null","imgNWTK/FindOutNow.jpg","imgNWTK/KeepItSecret.jpg","imgNWTK/FindOutNow.jpg","NaN","NaN","","",""
"null","<p><b> Congratulations, you have finished this block. </b> </p><p>Please take a short break before moving onto the next block.</p><p>The next block will start after a 15 second break.</p><b>Remember, the point rewards are the same between blocks","","html-keyboard-response","39","924790","0.0-7.0","male","21","Australia","15235","26179","neither","neither","imgNWTK/KeepItSecret.jpg","imgNWTK/FindOutNow.jpg","info","eq","3.11","","","","","","","","","","","","null","",""
"6332","","","bandit-task-exp6","40","955270","0.0-8.0-0.0","male","21","Australia","15235","26179","neither","neither","imgNWTK/KeepItSecret.jpg","imgNWTK/FindOutNow.jpg","info","eq","3.11","","31","2","1","0","null","imgNWTK/FindOutNow.jpg","imgNWTK/KeepItSecret.jpg","imgNWTK/FindOutNow.jpg","NaN","NaN","","",""
"505","","","bandit-task-exp6","41","978035","0.0-8.0-0.1","male","21","Australia","15235","26179","neither","neither","imgNWTK/KeepItSecret.jpg","imgNWTK/FindOutNow.jpg","info","eq","3.11","","32","2","1","0","null","imgNWTK/KeepItSecret.jpg","imgNWTK/FindOutNow.jpg","imgNWTK/FindOutNow.jpg","NaN","NaN","","",""
"1322","","","bandit-task-exp6","42","1001409","0.0-8.0-0.2","male","21","Australia","15235","26179","neither","neither","imgNWTK/KeepItSecret.jpg","imgNWTK/FindOutNow.jpg","info","eq","3.11","","33","2","2","98","null","imgNWTK/FindOutNow.jpg","imgNWTK/KeepItSecret.jpg","imgNWTK/FindOutNow.jpg","NaN","NaN","","",""
"1389","","","bandit-task-exp6","43","1027429","0.0-8.0-0.3","male","21","Australia","15235","26179","neither","neither","imgNWTK/KeepItSecret.jpg","imgNWTK/FindOutNow.jpg","info","eq","3.11","","34","2","2","103","null","imgNWTK/FindOutNow.jpg","imgNWTK/KeepItSecret.jpg","imgNWTK/FindOutNow.jpg","NaN","NaN","","",""
"834","","","bandit-task-exp6","44","1075884","0.0-8.0-0.4","male","21","Australia","15235","26179","neither","neither","imgNWTK/KeepItSecret.jpg","imgNWTK/FindOutNow.jpg","info","eq","3.11","","35","1","1","96","null","imgNWTK/FindOutNow.jpg","imgNWTK/KeepItSecret.jpg","imgNWTK/KeepItSecret.jpg","NaN","NaN","","",""
"1042","","","bandit-task-exp6","45","1111235","0.0-8.0-0.5","male","21","Australia","15235","26179","neither","neither","imgNWTK/KeepItSecret.jpg","imgNWTK/FindOutNow.jpg","info","eq","3.11","","36","1","2","0","null","imgNWTK/KeepItSecret.jpg","imgNWTK/FindOutNow.jpg","imgNWTK/KeepItSecret.jpg","NaN","NaN","","",""
"989","","","bandit-task-exp6","46","1143588","0.0-8.0-0.6","male","21","Australia","15235","26179","neither","neither","imgNWTK/KeepItSecret.jpg","imgNWTK/FindOutNow.jpg","info","eq","3.11","","37","1","2","0","null","imgNWTK/KeepItSecret.jpg","imgNWTK/FindOutNow.jpg","imgNWTK/KeepItSecret.jpg","NaN","NaN","","",""
"502","","","bandit-task-exp6","47","1170646","0.0-8.0-0.7","male","21","Australia","15235","26179","neither","neither","imgNWTK/KeepItSecret.jpg","imgNWTK/FindOutNow.jpg","info","eq","3.11","","38","1","2","0","null","imgNWTK/KeepItSecret.jpg","imgNWTK/FindOutNow.jpg","imgNWTK/KeepItSecret.jpg","NaN","NaN","","",""
"939","","","bandit-task-exp6","48","1193621","0.0-8.0-0.8","male","21","Australia","15235","26179","neither","neither","imgNWTK/KeepItSecret.jpg","imgNWTK/FindOutNow.jpg","info","eq","3.11","","39","2","1","0","null","imgNWTK/FindOutNow.jpg","imgNWTK/KeepItSecret.jpg","imgNWTK/FindOutNow.jpg","NaN","NaN","","",""
"1231","","","bandit-task-exp6","49","1216871","0.0-8.0-0.9","male","21","Australia","15235","26179","neither","neither","imgNWTK/KeepItSecret.jpg","imgNWTK/FindOutNow.jpg","info","eq","3.11","","40","2","2","98","null","imgNWTK/KeepItSecret.jpg","imgNWTK/FindOutNow.jpg","imgNWTK/FindOutNow.jpg","NaN","NaN","","",""
"1159","","","bandit-task-exp6","50","1240072","0.0-8.0-0.10","male","21","Australia","15235","26179","neither","neither","imgNWTK/KeepItSecret.jpg","imgNWTK/FindOutNow.jpg","info","eq","3.11","","41","2","1","0","null","imgNWTK/KeepItSecret.jpg","imgNWTK/FindOutNow.jpg","imgNWTK/FindOutNow.jpg","NaN","NaN","","",""
"455","","","bandit-task-exp6","51","1265097","0.0-8.0-0.11","male","21","Australia","15235","26179","neither","neither","imgNWTK/KeepItSecret.jpg","imgNWTK/FindOutNow.jpg","info","eq","3.11","","42","2","2","96","null","imgNWTK/FindOutNow.jpg","imgNWTK/KeepItSecret.jpg","imgNWTK/FindOutNow.jpg","NaN","NaN","","",""
"1019","","","bandit-task-exp6","52","1292918","0.0-8.0-0.12","male","21","Australia","15235","26179","neither","neither","imgNWTK/KeepItSecret.jpg","imgNWTK/FindOutNow.jpg","info","eq","3.11","","43","2","2","92","null","imgNWTK/FindOutNow.jpg","imgNWTK/KeepItSecret.jpg","imgNWTK/FindOutNow.jpg","NaN","NaN","","",""
"1126","","","bandit-task-exp6","53","1324530","0.0-8.0-0.13","male","21","Australia","15235","26179","neither","neither","imgNWTK/KeepItSecret.jpg","imgNWTK/FindOutNow.jpg","info","eq","3.11","","44","1","2","0","null","imgNWTK/KeepItSecret.jpg","imgNWTK/FindOutNow.jpg","imgNWTK/KeepItSecret.jpg","NaN","NaN","","",""
"1513","","","bandit-task-exp6","54","1355905","0.0-8.0-0.14","male","21","Australia","15235","26179","neither","neither","imgNWTK/KeepItSecret.jpg","imgNWTK/FindOutNow.jpg","info","eq","3.11","","45","2","2","97","null","imgNWTK/KeepItSecret.jpg","imgNWTK/FindOutNow.jpg","imgNWTK/FindOutNow.jpg","NaN","NaN","","",""
"null","<p><b> Congratulations, you have finished this block. </b> </p><p>Please take a short break before moving onto the next block.</p><p>The next block will start after a 15 second break.</p><b>Remember, the point rewards are the same between blocks","","html-keyboard-response","55","1370912","0.0-9.0","male","21","Australia","15235","26179","neither","neither","imgNWTK/KeepItSecret.jpg","imgNWTK/FindOutNow.jpg","info","eq","3.11","","","","","","","","","","","","null","",""
"59129","","","bandit-task-exp6","56","1452676","0.0-10.0-0.0","male","21","Australia","15235","26179","neither","neither","imgNWTK/KeepItSecret.jpg","imgNWTK/FindOutNow.jpg","info","eq","3.11","","46","1","1","105","null","imgNWTK/KeepItSecret.jpg","imgNWTK/FindOutNow.jpg","imgNWTK/KeepItSecret.jpg","109","96","","",""
"14729","","","bandit-task-exp6","57","1489370","0.0-10.0-0.1","male","21","Australia","15235","26179","neither","neither","imgNWTK/KeepItSecret.jpg","imgNWTK/FindOutNow.jpg","info","eq","3.11","","47","2","2","104","null","imgNWTK/KeepItSecret.jpg","imgNWTK/FindOutNow.jpg","imgNWTK/FindOutNow.jpg","106","98","","",""
"16300","","","bandit-task-exp6","58","1527322","0.0-10.0-0.2","male","21","Australia","15235","26179","neither","neither","imgNWTK/KeepItSecret.jpg","imgNWTK/FindOutNow.jpg","info","eq","3.11","","48","2","2","108","null","imgNWTK/KeepItSecret.jpg","imgNWTK/FindOutNow.jpg","imgNWTK/FindOutNow.jpg","98","101","","",""
"6911","","","bandit-task-exp6","59","1566134","0.0-10.0-0.3","male","21","Australia","15235","26179","neither","neither","imgNWTK/KeepItSecret.jpg","imgNWTK/FindOutNow.jpg","info","eq","3.11","","49","1","2","0","null","imgNWTK/KeepItSecret.jpg","imgNWTK/FindOutNow.jpg","imgNWTK/KeepItSecret.jpg","104","104","","",""
"5949","","","bandit-task-exp6","60","1593901","0.0-10.0-0.4","male","21","Australia","15235","26179","neither","neither","imgNWTK/KeepItSecret.jpg","imgNWTK/FindOutNow.jpg","info","eq","3.11","","50","2","2","105","null","imgNWTK/KeepItSecret.jpg","imgNWTK/FindOutNow.jpg","imgNWTK/FindOutNow.jpg","104","1043","","",""
"6134","","","bandit-task-exp6","61","1633724","0.0-10.0-0.5","male","21","Australia","15235","26179","neither","neither","imgNWTK/KeepItSecret.jpg","imgNWTK/FindOutNow.jpg","info","eq","3.11","","51","2","2","110","null","imgNWTK/KeepItSecret.jpg","imgNWTK/FindOutNow.jpg","imgNWTK/FindOutNow.jpg","103","103","","",""
"12152","","","bandit-task-exp6","62","1678274","0.0-10.0-0.6","male","21","Australia","15235","26179","neither","neither","imgNWTK/KeepItSecret.jpg","imgNWTK/FindOutNow.jpg","info","eq","3.11","","52","1","2","0","null","imgNWTK/FindOutNow.jpg","imgNWTK/KeepItSecret.jpg","imgNWTK/KeepItSecret.jpg","107","107","","",""
"5435","","","bandit-task-exp6","63","1710048","0.0-10.0-0.7","male","21","Australia","15235","26179","neither","neither","imgNWTK/KeepItSecret.jpg","imgNWTK/FindOutNow.jpg","info","eq","3.11","","53","2","2","101","null","imgNWTK/FindOutNow.jpg","imgNWTK/KeepItSecret.jpg","imgNWTK/FindOutNow.jpg","106","106","","",""
"4827","","","bandit-task-exp6","64","1739471","0.0-10.0-0.8","male","21","Australia","15235","26179","neither","neither","imgNWTK/KeepItSecret.jpg","imgNWTK/FindOutNow.jpg","info","eq","3.11","","54","2","1","0","null","imgNWTK/FindOutNow.jpg","imgNWTK/KeepItSecret.jpg","imgNWTK/FindOutNow.jpg","103","103","","",""
"8679","","","bandit-task-exp6","65","1770536","0.0-10.0-0.9","male","21","Australia","15235","26179","neither","neither","imgNWTK/KeepItSecret.jpg","imgNWTK/FindOutNow.jpg","info","eq","3.11","","55","2","1","0","null","imgNWTK/FindOutNow.jpg","imgNWTK/KeepItSecret.jpg","imgNWTK/FindOutNow.jpg","104","104","","",""
"7149","","","bandit-task-exp6","66","1799121","0.0-10.0-0.10","male","21","Australia","15235","26179","neither","neither","imgNWTK/KeepItSecret.jpg","imgNWTK/FindOutNow.jpg","info","eq","3.11","","56","2","1","0","null","imgNWTK/KeepItSecret.jpg","imgNWTK/FindOutNow.jpg","imgNWTK/FindOutNow.jpg","103","106","","",""
"5902","","","bandit-task-exp6","67","1829222","0.0-10.0-0.11","male","21","Australia","15235","26179","neither","neither","imgNWTK/KeepItSecret.jpg","imgNWTK/FindOutNow.jpg","info","eq","3.11","","57","2","1","0","null","imgNWTK/FindOutNow.jpg","imgNWTK/KeepItSecret.jpg","imgNWTK/FindOutNow.jpg","103","103","","",""
"6140","","","bandit-task-exp6","68","1858288","0.0-10.0-0.12","male","21","Australia","15235","26179","neither","neither","imgNWTK/KeepItSecret.jpg","imgNWTK/FindOutNow.jpg","info","eq","3.11","","58","1","1","91","null","imgNWTK/FindOutNow.jpg","imgNWTK/KeepItSecret.jpg","imgNWTK/KeepItSecret.jpg","105","105","","",""
"4774","","","bandit-task-exp6","69","1887359","0.0-10.0-0.13","male","21","Australia","15235","26179","neither","neither","imgNWTK/KeepItSecret.jpg","imgNWTK/FindOutNow.jpg","info","eq","3.11","","59","2","1","0","null","imgNWTK/FindOutNow.jpg","imgNWTK/KeepItSecret.jpg","imgNWTK/FindOutNow.jpg","101","101","","",""
"5204","","","bandit-task-exp6","70","1937566","0.0-10.0-0.14","male","21","Australia","15235","26179","neither","neither","imgNWTK/KeepItSecret.jpg","imgNWTK/FindOutNow.jpg","info","eq","3.11","","60","1","1","91","null","imgNWTK/FindOutNow.jpg","imgNWTK/KeepItSecret.jpg","imgNWTK/KeepItSecret.jpg","104","104","","",""
"3857","<p> Congratulations, you have finished the main part of the experiment. </p><p>Before you finish, we have a few short questions about the options and outcomes you saw in the task.</p>","0","html-button-response","71","1941423","0.0-11.0","male","21","Australia","15235","26179","neither","neither","imgNWTK/KeepItSecret.jpg","imgNWTK/FindOutNow.jpg","info","eq","3.11","","","","","","","","","","","","","",""
"9109","<p><b>Now, imagine that you clicked on the below button for another 10 trials (this includes <i> BOTH WIN and NO-WIN trials</i>).</p> <img src= 'imgNWTK/KeepItSecret.jpg'></img></br></br> <p><b>Please type the reward (number of points) you would expect to receive on every trial.</br> Click start to begin.</p>","0","html-button-response","72","1950534","0.0-12.0","male","21","Australia","15235","26179","neither","neither","imgNWTK/KeepItSecret.jpg","imgNWTK/FindOutNow.jpg","info","eq","3.11","","","","","","","","","","","","","",""
"6554.5999999940395","","","survey-number","73","1957091","0.0-13.0-0.0","male","21","Australia","15235","26179","neither","neither","imgNWTK/KeepItSecret.jpg","imgNWTK/FindOutNow.jpg","info","eq","3.11","{""undefined"":""104""}","","","","","","","","","","","","imgNWTK/KeepItSecret.jpg",""
"4179.0999999940395","","","survey-number","74","1961272","0.0-13.0-0.1","male","21","Australia","15235","26179","neither","neither","imgNWTK/KeepItSecret.jpg","imgNWTK/FindOutNow.jpg","info","eq","3.11","{""undefined"":""101""}","","","","","","","","","","","","imgNWTK/KeepItSecret.jpg",""
"3693.8999999910593","","","survey-number","75","1964968","0.0-13.0-0.2","male","21","Australia","15235","26179","neither","neither","imgNWTK/KeepItSecret.jpg","imgNWTK/FindOutNow.jpg","info","eq","3.11","{""undefined"":""106""}","","","","","","","","","","","","imgNWTK/KeepItSecret.jpg",""
"1804.2000000029802","","","survey-number","76","1966774","0.0-13.0-0.3","male","21","Australia","15235","26179","neither","neither","imgNWTK/KeepItSecret.jpg","imgNWTK/FindOutNow.jpg","info","eq","3.11","{""undefined"":""96""}","","","","","","","","","","","","imgNWTK/KeepItSecret.jpg",""
"6081.20000000298","","","survey-number","77","1972857","0.0-13.0-0.4","male","21","Australia","15235","26179","neither","neither","imgNWTK/KeepItSecret.jpg","imgNWTK/FindOutNow.jpg","info","eq","3.11","{""undefined"":""94""}","","","","","","","","","","","","imgNWTK/KeepItSecret.jpg",""
"2730.7000000029802","","","survey-number","78","1975590","0.0-13.0-0.5","male","21","Australia","15235","26179","neither","neither","imgNWTK/KeepItSecret.jpg","imgNWTK/FindOutNow.jpg","info","eq","3.11","{""undefined"":""108""}","","","","","","","","","","","","imgNWTK/KeepItSecret.jpg",""
"2609.2999999970198","","","survey-number","79","1978201","0.0-13.0-0.6","male","21","Australia","15235","26179","neither","neither","imgNWTK/KeepItSecret.jpg","imgNWTK/FindOutNow.jpg","info","eq","3.11","{""undefined"":""102""}","","","","","","","","","","","","imgNWTK/KeepItSecret.jpg",""
"2755.5","","","survey-number","80","1980958","0.0-13.0-0.7","male","21","Australia","15235","26179","neither","neither","imgNWTK/KeepItSecret.jpg","imgNWTK/FindOutNow.jpg","info","eq","3.11","{""undefined"":""104""}","","","","","","","","","","","","imgNWTK/KeepItSecret.jpg",""
"2247.2999999970198","","","survey-number","81","1983207","0.0-13.0-0.8","male","21","Australia","15235","26179","neither","neither","imgNWTK/KeepItSecret.jpg","imgNWTK/FindOutNow.jpg","info","eq","3.11","{""undefined"":""97""}","","","","","","","","","","","","imgNWTK/KeepItSecret.jpg",""
"2338.3999999910593","","","survey-number","82","1985547","0.0-13.0-0.9","male","21","Australia","15235","26179","neither","neither","imgNWTK/KeepItSecret.jpg","imgNWTK/FindOutNow.jpg","info","eq","3.11","{""undefined"":""100""}","","","","","","","","","","","","imgNWTK/KeepItSecret.jpg",""
"2939","<p><b>Imagine that you clicked on the below button for another 10 trials (this includes <i> both WIN and NO-WIN trials</i>).</p> <img src= 'imgNWTK/FindOutNow.jpg'></img></br></br> <p><b>Please type the reward (number of points) you would expect to receive on every trial.</br> Click start to begin.</p>","0","html-button-response","83","1988487","0.0-14.0","male","21","Australia","15235","26179","neither","neither","imgNWTK/KeepItSecret.jpg","imgNWTK/FindOutNow.jpg","info","eq","3.11","","","","","","","","","","","","","",""
"2780.2000000029802","","","survey-number","84","1991269","0.0-15.0-0.0","male","21","Australia","15235","26179","neither","neither","imgNWTK/KeepItSecret.jpg","imgNWTK/FindOutNow.jpg","info","eq","3.11","{""undefined"":""98""}","","","","","","","","","","","","imgNWTK/FindOutNow.jpg",""
"1991","","","survey-number","85","1993262","0.0-15.0-0.1","male","21","Australia","15235","26179","neither","neither","imgNWTK/KeepItSecret.jpg","imgNWTK/FindOutNow.jpg","info","eq","3.11","{""undefined"":""104""}","","","","","","","","","","","","imgNWTK/FindOutNow.jpg",""
"2247.7000000029802","","","survey-number","86","1995511","0.0-15.0-0.2","male","21","Australia","15235","26179","neither","neither","imgNWTK/KeepItSecret.jpg","imgNWTK/FindOutNow.jpg","info","eq","3.11","{""undefined"":""107""}","","","","","","","","","","","","imgNWTK/FindOutNow.jpg",""
"2484.2000000029802","","","survey-number","87","1997997","0.0-15.0-0.3","male","21","Australia","15235","26179","neither","neither","imgNWTK/KeepItSecret.jpg","imgNWTK/FindOutNow.jpg","info","eq","3.11","{""undefined"":""92""}","","","","","","","","","","","","imgNWTK/FindOutNow.jpg",""
"1699.2000000029802","","","survey-number","88","1999697","0.0-15.0-0.4","male","21","Australia","15235","26179","neither","neither","imgNWTK/KeepItSecret.jpg","imgNWTK/FindOutNow.jpg","info","eq","3.11","{""undefined"":""98""}","","","","","","","","","","","","imgNWTK/FindOutNow.jpg",""
"2488.7999999970198","","","survey-number","89","2002188","0.0-15.0-0.5","male","21","Australia","15235","26179","neither","neither","imgNWTK/KeepItSecret.jpg","imgNWTK/FindOutNow.jpg","info","eq","3.11","{""undefined"":""103""}","","","","","","","","","","","","imgNWTK/FindOutNow.jpg",""
"2001.2000000029802","","","survey-number","90","2004191","0.0-15.0-0.6","male","21","Australia","15235","26179","neither","neither","imgNWTK/KeepItSecret.jpg","imgNWTK/FindOutNow.jpg","info","eq","3.11","{""undefined"":""104""}","","","","","","","","","","","","imgNWTK/FindOutNow.jpg",""
"2860.5","","","survey-number","91","2007053","0.0-15.0-0.7","male","21","Australia","15235","26179","neither","neither","imgNWTK/KeepItSecret.jpg","imgNWTK/FindOutNow.jpg","info","eq","3.11","{""undefined"":""101""}","","","","","","","","","","","","imgNWTK/FindOutNow.jpg",""
"3488.0999999940395","","","survey-number","92","2010542","0.0-15.0-0.8","male","21","Australia","15235","26179","neither","neither","imgNWTK/KeepItSecret.jpg","imgNWTK/FindOutNow.jpg","info","eq","3.11","{""undefined"":""99""}","","","","","","","","","","","","imgNWTK/FindOutNow.jpg",""
"4119.399999991059","","","survey-number","93","2014663","0.0-15.0-0.9","male","21","Australia","15235","26179","neither","neither","imgNWTK/KeepItSecret.jpg","imgNWTK/FindOutNow.jpg","info","eq","3.11","{""undefined"":""108""}","","","","","","","","","","","","imgNWTK/FindOutNow.jpg",""
"20606.29999999702","","","survey-number","94","2035277","0.0-16.0","male","21","Australia","15235","26179","neither","neither","imgNWTK/KeepItSecret.jpg","imgNWTK/FindOutNow.jpg","info","eq","3.11","{""undefined"":""100""}","","","","","","","","","","","","","imgNWTK/FindOutNow.jpg"
"2215.7999999970198","","","survey-number","95","2037495","0.0-17.0","male","21","Australia","15235","26179","neither","neither","imgNWTK/KeepItSecret.jpg","imgNWTK/FindOutNow.jpg","info","eq","3.11","{""undefined"":""100""}","","","","","","","","","","","","","imgNWTK/KeepItSecret.jpg"
"50188","<p style=""text-align:left;"">Great! We are almost at the end of the study... (Please do not close the browser window yet.)</p><p> Your final points balance is 3114, which equals to a bonus payment of $3.11. Please collect your payment from Mathews Building Room 721 (Mon-Fri 9am-5pm); please email amy.x.li@unsw.edu.au at least 24 hours prior to collection so that this is ready for you.</p><p style=""text-align:left;"">To view the debriefing form, please click <a href=""./imgNWTK/debrief_3205.pdf"" target=""_blank"">here</a> to download a copy.</p><p style=""text-align:left;"">Then, <b>please click the below button</b> to confirm that you have received your debrief and to complete the study. Upon clicking ""Finish!"", your SONA credit will be automatically assigned.</p>","0","html-button-response","96","2087684","0.0-18.0","male","21","Australia","15235","26179","neither","neither","imgNWTK/KeepItSecret.jpg","imgNWTK/FindOutNow.jpg","info","eq","3.11","","","","","","","","","","","","","",""
