"rt","stimulus","button_pressed","trial_type","trial_index","time_elapsed","internal_node_id","gender","age","language","PID","sona_id","subStim","optStim","stim1","stim2","infoCond","optimCond","bonus","responses","banditTrial","choice","cue","feedback","estimateData","leftOption","rightOption","choiceName","leftInput","rightInput","key_press","postQ","singleEst"
"2728","<p>Thank you for signing up to participate in SONA Study 465! <br> During this study, please focus on the experiment and refrain from activities such as:</p>- <b>Switching to other tabs on your browser (this will be monitored via the experiment)</br> - Using your mobile phone/cell phone</br> - Communicating with others</br></br></b><p>This way, you are helping to provide data that is useful for psychological research. We thank you for your cooperation!</p>","0","html-button-response","0","2731","0.0-0.0","female","29","aus","81742","25062","neither","neither","imgNWTK/KeepItSecret.jpg","imgNWTK/FindOutNow.jpg","info","eq","2.35","","","","","","","","","","","","","",""
"1496","<p>Welcome to the experiment!</p><p>You will now read some instructions about the task. Press the 'Next' button to continue. </p>","0","html-button-response","1","4230","0.0-1.0","female","29","aus","81742","25062","neither","neither","imgNWTK/KeepItSecret.jpg","imgNWTK/FindOutNow.jpg","info","eq","2.35","","","","","","","","","","","","","",""
"21579","<p> On each trial throughout the experiment you will choose between the options </br><b> Find Out Now </b> and <b> Keep It Secret </b>, as shown below.</p><div><div style= 'float: left; width: 300px; margin: 10px 10px;'><img src= 'imgNWTK/KeepItSecret.jpg'></img></div><div style= 'float: right; width: 300px; margin: 10px 10px;'><img src= 'imgNWTK/FindOutNow.jpg'></img></div></div><br/><br/><br/><br/><br/><br/><br/><br/><br/><br/><br/><p>Each option results in winning points or receiving 0 points.</br>There is a 50% chance of either winning or receiving 0 points.</p><p>You won't receive the outcome until after a <b> 20 second delay</b>. However, selecting the Find Out Now option will allow you to find out about the outcome early, whereas the Keep It Secret option will not. </p>","0","html-button-response","2","25812","0.0-2.0-0.0","female","29","aus","81742","25062","neither","neither","imgNWTK/KeepItSecret.jpg","imgNWTK/FindOutNow.jpg","info","eq","2.35","","","","","","","","","","","","","",""
"35048","<img src= 'cues/Experiment6.png'></img><p>As seen above, when choosing the <b>'Find Out Now'</b> option, you will receive either a happy face or sad face.</br>The happy face means you will win points after the delay, whereas the sad face means you will receive 0 points.</br></p><p> When choosing the <b> 'Keep it Secret' </b> option you will receive a confused face.</br> This face appears regardless of whether you are going to win points or not. </p>In short, choosing 'Find Out Now' allows you to find out the outcome before you experience it (after the delay).</br></br>","0","html-button-response","3","60862","0.0-2.0-1.0","female","29","aus","81742","25062","neither","neither","imgNWTK/KeepItSecret.jpg","imgNWTK/FindOutNow.jpg","info","eq","2.35","","","","","","","","","","","","","",""
"8247","<img src= 'cues/winTrials_info.png' width = '1200'></img><p>To reiterate, 50% of the outcomes of each option will be WIN TRIALS, and the other 50% will be NO-WIN TRIALS.","0","html-button-response","4","69113","0.0-2.0-2.0","female","29","aus","81742","25062","neither","neither","imgNWTK/KeepItSecret.jpg","imgNWTK/FindOutNow.jpg","info","eq","2.35","","","","","","","","","","","","","",""
"4297","<p> There will be <b>four blocks</b> in the experiment.</br>You will be given a short 15 second break between each block.</p><p><b>The points and the options will remain the same between the blocks.</b></p>The blocks are there just to give you a small break.</br></br><p>The points you earn in the task are also equal to <b> actual money</b>.</br> <b>1000 points is equal to $1.</b></p><p>This is the rate you will be paid at the experiment's end.","0","html-button-response","5","73411","0.0-2.0-3.0","female","29","aus","81742","25062","neither","neither","imgNWTK/KeepItSecret.jpg","imgNWTK/FindOutNow.jpg","info","eq","2.35","","","","","","","","","","","","","",""
"16930","","","survey-multi-choice","6","90349","0.0-2.0-4.0","female","29","aus","81742","25062","neither","neither","imgNWTK/KeepItSecret.jpg","imgNWTK/FindOutNow.jpg","info","eq","2.35","{""Q0"":""20 Seconds"",""Q1"":""True"",""Q2"":""Equally"",""Q3"":""True""}","","","","","","","","","","","","",""
"4160","<p> Well done, all your answers were correct! <br> The experiment is about to start now. <br/> Click start to continue, or email your researcher <b>(amy.x.li@unsw.edu.au)</b> if you have any questions before starting.","0","html-button-response","7","94513","0.0-3.0","female","29","aus","81742","25062","neither","neither","imgNWTK/KeepItSecret.jpg","imgNWTK/FindOutNow.jpg","info","eq","2.35","","","","","","","","","","","","","",""
"2161","","","bandit-task-exp6","8","119647","0.0-4.0-0.0","female","29","aus","81742","25062","neither","neither","imgNWTK/KeepItSecret.jpg","imgNWTK/FindOutNow.jpg","info","eq","2.35","","1","2","1","0","null","imgNWTK/KeepItSecret.jpg","imgNWTK/FindOutNow.jpg","imgNWTK/FindOutNow.jpg","NaN","NaN","","",""
"3278","","","bandit-task-exp6","9","146781","0.0-4.0-0.1","female","29","aus","81742","25062","neither","neither","imgNWTK/KeepItSecret.jpg","imgNWTK/FindOutNow.jpg","info","eq","2.35","","2","1","2","0","null","imgNWTK/KeepItSecret.jpg","imgNWTK/FindOutNow.jpg","imgNWTK/KeepItSecret.jpg","NaN","NaN","","",""
"2475","","","bandit-task-exp6","10","172864","0.0-4.0-0.2","female","29","aus","81742","25062","neither","neither","imgNWTK/KeepItSecret.jpg","imgNWTK/FindOutNow.jpg","info","eq","2.35","","3","1","1","91","null","imgNWTK/FindOutNow.jpg","imgNWTK/KeepItSecret.jpg","imgNWTK/KeepItSecret.jpg","NaN","NaN","","",""
"2877","","","bandit-task-exp6","11","198697","0.0-4.0-0.3","female","29","aus","81742","25062","neither","neither","imgNWTK/KeepItSecret.jpg","imgNWTK/FindOutNow.jpg","info","eq","2.35","","4","2","1","0","null","imgNWTK/KeepItSecret.jpg","imgNWTK/FindOutNow.jpg","imgNWTK/FindOutNow.jpg","NaN","NaN","","",""
"2327","","","bandit-task-exp6","12","223713","0.0-4.0-0.4","female","29","aus","81742","25062","neither","neither","imgNWTK/KeepItSecret.jpg","imgNWTK/FindOutNow.jpg","info","eq","2.35","","5","2","1","0","null","imgNWTK/FindOutNow.jpg","imgNWTK/KeepItSecret.jpg","imgNWTK/FindOutNow.jpg","NaN","NaN","","",""
"2976","","","bandit-task-exp6","13","254746","0.0-4.0-0.5","female","29","aus","81742","25062","neither","neither","imgNWTK/KeepItSecret.jpg","imgNWTK/FindOutNow.jpg","info","eq","2.35","","6","1","1","95","null","imgNWTK/KeepItSecret.jpg","imgNWTK/FindOutNow.jpg","imgNWTK/KeepItSecret.jpg","NaN","NaN","","",""
"1212","","","bandit-task-exp6","14","278129","0.0-4.0-0.6","female","29","aus","81742","25062","neither","neither","imgNWTK/KeepItSecret.jpg","imgNWTK/FindOutNow.jpg","info","eq","2.35","","7","1","1","91","null","imgNWTK/FindOutNow.jpg","imgNWTK/KeepItSecret.jpg","imgNWTK/KeepItSecret.jpg","NaN","NaN","","",""
"2045","","","bandit-task-exp6","15","303830","0.0-4.0-0.7","female","29","aus","81742","25062","neither","neither","imgNWTK/KeepItSecret.jpg","imgNWTK/FindOutNow.jpg","info","eq","2.35","","8","1","2","0","null","imgNWTK/KeepItSecret.jpg","imgNWTK/FindOutNow.jpg","imgNWTK/KeepItSecret.jpg","NaN","NaN","","",""
"878","","","bandit-task-exp6","16","327496","0.0-4.0-0.8","female","29","aus","81742","25062","neither","neither","imgNWTK/KeepItSecret.jpg","imgNWTK/FindOutNow.jpg","info","eq","2.35","","9","2","1","0","null","imgNWTK/KeepItSecret.jpg","imgNWTK/FindOutNow.jpg","imgNWTK/FindOutNow.jpg","NaN","NaN","","",""
"1429","","","bandit-task-exp6","17","377313","0.0-4.0-0.9","female","29","aus","81742","25062","neither","neither","imgNWTK/KeepItSecret.jpg","imgNWTK/FindOutNow.jpg","info","eq","2.35","","10","2","1","0","null","imgNWTK/KeepItSecret.jpg","imgNWTK/FindOutNow.jpg","imgNWTK/FindOutNow.jpg","NaN","NaN","","",""
"1162","","","bandit-task-exp6","18","401496","0.0-4.0-0.10","female","29","aus","81742","25062","neither","neither","imgNWTK/KeepItSecret.jpg","imgNWTK/FindOutNow.jpg","info","eq","2.35","","11","1","2","0","null","imgNWTK/FindOutNow.jpg","imgNWTK/KeepItSecret.jpg","imgNWTK/KeepItSecret.jpg","NaN","NaN","","",""
"1562","","","bandit-task-exp6","19","425863","0.0-4.0-0.11","female","29","aus","81742","25062","neither","neither","imgNWTK/KeepItSecret.jpg","imgNWTK/FindOutNow.jpg","info","eq","2.35","","12","1","2","0","null","imgNWTK/KeepItSecret.jpg","imgNWTK/FindOutNow.jpg","imgNWTK/KeepItSecret.jpg","NaN","NaN","","",""
"1580","","","bandit-task-exp6","20","453464","0.0-4.0-0.12","female","29","aus","81742","25062","neither","neither","imgNWTK/KeepItSecret.jpg","imgNWTK/FindOutNow.jpg","info","eq","2.35","","13","2","2","99","null","imgNWTK/FindOutNow.jpg","imgNWTK/KeepItSecret.jpg","imgNWTK/FindOutNow.jpg","NaN","NaN","","",""
"1093","","","bandit-task-exp6","21","477231","0.0-4.0-0.13","female","29","aus","81742","25062","neither","neither","imgNWTK/KeepItSecret.jpg","imgNWTK/FindOutNow.jpg","info","eq","2.35","","14","2","2","110","null","imgNWTK/FindOutNow.jpg","imgNWTK/KeepItSecret.jpg","imgNWTK/FindOutNow.jpg","NaN","NaN","","",""
"1911","","","bandit-task-exp6","22","502431","0.0-4.0-0.14","female","29","aus","81742","25062","neither","neither","imgNWTK/KeepItSecret.jpg","imgNWTK/FindOutNow.jpg","info","eq","2.35","","15","2","1","0","null","imgNWTK/KeepItSecret.jpg","imgNWTK/FindOutNow.jpg","imgNWTK/FindOutNow.jpg","NaN","NaN","","",""
"null","<p><b> Congratulations, you have finished this block. </b> </p><p>Please take a short break before moving onto the next block.</p><p>The next block will start after a 15 second break.</p><b>Remember, the point rewards are the same between blocks","","html-keyboard-response","23","517435","0.0-5.0","female","29","aus","81742","25062","neither","neither","imgNWTK/KeepItSecret.jpg","imgNWTK/FindOutNow.jpg","info","eq","2.35","","","","","","","","","","","","null","",""
"4174","","","bandit-task-exp6","24","559548","0.0-6.0-0.0","female","29","aus","81742","25062","neither","neither","imgNWTK/KeepItSecret.jpg","imgNWTK/FindOutNow.jpg","info","eq","2.35","","16","2","2","95","null","imgNWTK/FindOutNow.jpg","imgNWTK/KeepItSecret.jpg","imgNWTK/FindOutNow.jpg","NaN","NaN","","",""
"1378","","","bandit-task-exp6","25","583878","0.0-6.0-0.1","female","29","aus","81742","25062","neither","neither","imgNWTK/KeepItSecret.jpg","imgNWTK/FindOutNow.jpg","info","eq","2.35","","17","2","1","0","null","imgNWTK/FindOutNow.jpg","imgNWTK/KeepItSecret.jpg","imgNWTK/FindOutNow.jpg","NaN","NaN","","",""
"1866","","","bandit-task-exp6","26","630380","0.0-6.0-0.2","female","29","aus","81742","25062","neither","neither","imgNWTK/KeepItSecret.jpg","imgNWTK/FindOutNow.jpg","info","eq","2.35","","18","1","2","0","null","imgNWTK/FindOutNow.jpg","imgNWTK/KeepItSecret.jpg","imgNWTK/KeepItSecret.jpg","NaN","NaN","","",""
"1129","","","bandit-task-exp6","27","656846","0.0-6.0-0.3","female","29","aus","81742","25062","neither","neither","imgNWTK/KeepItSecret.jpg","imgNWTK/FindOutNow.jpg","info","eq","2.35","","19","1","1","93","null","imgNWTK/KeepItSecret.jpg","imgNWTK/FindOutNow.jpg","imgNWTK/KeepItSecret.jpg","NaN","NaN","","",""
"1380","","","bandit-task-exp6","28","681731","0.0-6.0-0.4","female","29","aus","81742","25062","neither","neither","imgNWTK/KeepItSecret.jpg","imgNWTK/FindOutNow.jpg","info","eq","2.35","","20","2","1","0","null","imgNWTK/KeepItSecret.jpg","imgNWTK/FindOutNow.jpg","imgNWTK/FindOutNow.jpg","NaN","NaN","","",""
"995","","","bandit-task-exp6","29","713447","0.0-6.0-0.5","female","29","aus","81742","25062","neither","neither","imgNWTK/KeepItSecret.jpg","imgNWTK/FindOutNow.jpg","info","eq","2.35","","21","2","2","98","null","imgNWTK/FindOutNow.jpg","imgNWTK/KeepItSecret.jpg","imgNWTK/FindOutNow.jpg","NaN","NaN","","",""
"946","","","bandit-task-exp6","30","739231","0.0-6.0-0.6","female","29","aus","81742","25062","neither","neither","imgNWTK/KeepItSecret.jpg","imgNWTK/FindOutNow.jpg","info","eq","2.35","","22","2","1","0","null","imgNWTK/FindOutNow.jpg","imgNWTK/KeepItSecret.jpg","imgNWTK/FindOutNow.jpg","NaN","NaN","","",""
"6694","","","bandit-task-exp6","31","794862","0.0-6.0-0.7","female","29","aus","81742","25062","neither","neither","imgNWTK/KeepItSecret.jpg","imgNWTK/FindOutNow.jpg","info","eq","2.35","","23","2","2","105","null","imgNWTK/KeepItSecret.jpg","imgNWTK/FindOutNow.jpg","imgNWTK/FindOutNow.jpg","NaN","NaN","","",""
"1265","","","bandit-task-exp6","32","858729","0.0-6.0-0.8","female","29","aus","81742","25062","neither","neither","imgNWTK/KeepItSecret.jpg","imgNWTK/FindOutNow.jpg","info","eq","2.35","","24","1","1","94","null","imgNWTK/KeepItSecret.jpg","imgNWTK/FindOutNow.jpg","imgNWTK/KeepItSecret.jpg","NaN","NaN","","",""
"1298","","","bandit-task-exp6","33","885879","0.0-6.0-0.9","female","29","aus","81742","25062","neither","neither","imgNWTK/KeepItSecret.jpg","imgNWTK/FindOutNow.jpg","info","eq","2.35","","25","1","2","0","null","imgNWTK/KeepItSecret.jpg","imgNWTK/FindOutNow.jpg","imgNWTK/KeepItSecret.jpg","NaN","NaN","","",""
"32148","","","bandit-task-exp6","34","940497","0.0-6.0-0.10","female","29","aus","81742","25062","neither","neither","imgNWTK/KeepItSecret.jpg","imgNWTK/FindOutNow.jpg","info","eq","2.35","","26","2","1","0","null","imgNWTK/FindOutNow.jpg","imgNWTK/KeepItSecret.jpg","imgNWTK/FindOutNow.jpg","NaN","NaN","","",""
"1313","","","bandit-task-exp6","35","971196","0.0-6.0-0.11","female","29","aus","81742","25062","neither","neither","imgNWTK/KeepItSecret.jpg","imgNWTK/FindOutNow.jpg","info","eq","2.35","","27","2","1","0","null","imgNWTK/KeepItSecret.jpg","imgNWTK/FindOutNow.jpg","imgNWTK/FindOutNow.jpg","NaN","NaN","","",""
"1181","","","bandit-task-exp6","36","995997","0.0-6.0-0.12","female","29","aus","81742","25062","neither","neither","imgNWTK/KeepItSecret.jpg","imgNWTK/FindOutNow.jpg","info","eq","2.35","","28","2","1","0","null","imgNWTK/FindOutNow.jpg","imgNWTK/KeepItSecret.jpg","imgNWTK/FindOutNow.jpg","NaN","NaN","","",""
"829","","","bandit-task-exp6","37","1019148","0.0-6.0-0.13","female","29","aus","81742","25062","neither","neither","imgNWTK/KeepItSecret.jpg","imgNWTK/FindOutNow.jpg","info","eq","2.35","","29","1","2","0","null","imgNWTK/KeepItSecret.jpg","imgNWTK/FindOutNow.jpg","imgNWTK/KeepItSecret.jpg","NaN","NaN","","",""
"1145","","","bandit-task-exp6","38","1042513","0.0-6.0-0.14","female","29","aus","81742","25062","neither","neither","imgNWTK/KeepItSecret.jpg","imgNWTK/FindOutNow.jpg","info","eq","2.35","","30","2","2","92","null","imgNWTK/KeepItSecret.jpg","imgNWTK/FindOutNow.jpg","imgNWTK/FindOutNow.jpg","NaN","NaN","","",""
"null","<p><b> Congratulations, you have finished this block. </b> </p><p>Please take a short break before moving onto the next block.</p><p>The next block will start after a 15 second break.</p><b>Remember, the point rewards are the same between blocks","","html-keyboard-response","39","1057518","0.0-7.0","female","29","aus","81742","25062","neither","neither","imgNWTK/KeepItSecret.jpg","imgNWTK/FindOutNow.jpg","info","eq","2.35","","","","","","","","","","","","null","",""
"4090","","","bandit-task-exp6","40","1089915","0.0-8.0-0.0","female","29","aus","81742","25062","neither","neither","imgNWTK/KeepItSecret.jpg","imgNWTK/FindOutNow.jpg","info","eq","2.35","","31","2","2","105","null","imgNWTK/KeepItSecret.jpg","imgNWTK/FindOutNow.jpg","imgNWTK/FindOutNow.jpg","NaN","NaN","","",""
"1295","","","bandit-task-exp6","41","1114564","0.0-8.0-0.1","female","29","aus","81742","25062","neither","neither","imgNWTK/KeepItSecret.jpg","imgNWTK/FindOutNow.jpg","info","eq","2.35","","32","2","1","0","null","imgNWTK/KeepItSecret.jpg","imgNWTK/FindOutNow.jpg","imgNWTK/FindOutNow.jpg","NaN","NaN","","",""
"17864","","","bandit-task-exp6","42","1161962","0.0-8.0-0.2","female","29","aus","81742","25062","neither","neither","imgNWTK/KeepItSecret.jpg","imgNWTK/FindOutNow.jpg","info","eq","2.35","","33","1","2","0","null","imgNWTK/FindOutNow.jpg","imgNWTK/KeepItSecret.jpg","imgNWTK/KeepItSecret.jpg","NaN","NaN","","",""
"1214","","","bandit-task-exp6","43","1197548","0.0-8.0-0.3","female","29","aus","81742","25062","neither","neither","imgNWTK/KeepItSecret.jpg","imgNWTK/FindOutNow.jpg","info","eq","2.35","","34","1","1","98","null","imgNWTK/KeepItSecret.jpg","imgNWTK/FindOutNow.jpg","imgNWTK/KeepItSecret.jpg","NaN","NaN","","",""
"21594","","","bandit-task-exp6","44","1241481","0.0-8.0-0.4","female","29","aus","81742","25062","neither","neither","imgNWTK/KeepItSecret.jpg","imgNWTK/FindOutNow.jpg","info","eq","2.35","","35","1","2","0","null","imgNWTK/KeepItSecret.jpg","imgNWTK/FindOutNow.jpg","imgNWTK/KeepItSecret.jpg","NaN","NaN","","",""
"1045","","","bandit-task-exp6","45","1265246","0.0-8.0-0.5","female","29","aus","81742","25062","neither","neither","imgNWTK/KeepItSecret.jpg","imgNWTK/FindOutNow.jpg","info","eq","2.35","","36","2","2","109","null","imgNWTK/KeepItSecret.jpg","imgNWTK/FindOutNow.jpg","imgNWTK/FindOutNow.jpg","NaN","NaN","","",""
"7779","","","bandit-task-exp6","46","1295265","0.0-8.0-0.6","female","29","aus","81742","25062","neither","neither","imgNWTK/KeepItSecret.jpg","imgNWTK/FindOutNow.jpg","info","eq","2.35","","37","1","1","90","null","imgNWTK/FindOutNow.jpg","imgNWTK/KeepItSecret.jpg","imgNWTK/KeepItSecret.jpg","NaN","NaN","","",""
"727","","","bandit-task-exp6","47","1321031","0.0-8.0-0.7","female","29","aus","81742","25062","neither","neither","imgNWTK/KeepItSecret.jpg","imgNWTK/FindOutNow.jpg","info","eq","2.35","","38","2","1","0","null","imgNWTK/KeepItSecret.jpg","imgNWTK/FindOutNow.jpg","imgNWTK/FindOutNow.jpg","NaN","NaN","","",""
"795","","","bandit-task-exp6","48","1353315","0.0-8.0-0.8","female","29","aus","81742","25062","neither","neither","imgNWTK/KeepItSecret.jpg","imgNWTK/FindOutNow.jpg","info","eq","2.35","","39","1","1","94","null","imgNWTK/KeepItSecret.jpg","imgNWTK/FindOutNow.jpg","imgNWTK/KeepItSecret.jpg","NaN","NaN","","",""
"5277","","","bandit-task-exp6","49","1382798","0.0-8.0-0.9","female","29","aus","81742","25062","neither","neither","imgNWTK/KeepItSecret.jpg","imgNWTK/FindOutNow.jpg","info","eq","2.35","","40","2","2","105","null","imgNWTK/KeepItSecret.jpg","imgNWTK/FindOutNow.jpg","imgNWTK/FindOutNow.jpg","NaN","NaN","","",""
"727","","","bandit-task-exp6","50","1406214","0.0-8.0-0.10","female","29","aus","81742","25062","neither","neither","imgNWTK/KeepItSecret.jpg","imgNWTK/FindOutNow.jpg","info","eq","2.35","","41","2","1","0","null","imgNWTK/FindOutNow.jpg","imgNWTK/KeepItSecret.jpg","imgNWTK/FindOutNow.jpg","NaN","NaN","","",""
"1262","","","bandit-task-exp6","51","1430847","0.0-8.0-0.11","female","29","aus","81742","25062","neither","neither","imgNWTK/KeepItSecret.jpg","imgNWTK/FindOutNow.jpg","info","eq","2.35","","42","1","1","90","null","imgNWTK/FindOutNow.jpg","imgNWTK/KeepItSecret.jpg","imgNWTK/KeepItSecret.jpg","NaN","NaN","","",""
"863","","","bandit-task-exp6","52","1455614","0.0-8.0-0.12","female","29","aus","81742","25062","neither","neither","imgNWTK/KeepItSecret.jpg","imgNWTK/FindOutNow.jpg","info","eq","2.35","","43","1","1","92","null","imgNWTK/KeepItSecret.jpg","imgNWTK/FindOutNow.jpg","imgNWTK/KeepItSecret.jpg","NaN","NaN","","",""
"812","","","bandit-task-exp6","53","1479448","0.0-8.0-0.13","female","29","aus","81742","25062","neither","neither","imgNWTK/KeepItSecret.jpg","imgNWTK/FindOutNow.jpg","info","eq","2.35","","44","1","2","0","null","imgNWTK/FindOutNow.jpg","imgNWTK/KeepItSecret.jpg","imgNWTK/KeepItSecret.jpg","NaN","NaN","","",""
"811","","","bandit-task-exp6","54","1502514","0.0-8.0-0.14","female","29","aus","81742","25062","neither","neither","imgNWTK/KeepItSecret.jpg","imgNWTK/FindOutNow.jpg","info","eq","2.35","","45","2","2","103","null","imgNWTK/FindOutNow.jpg","imgNWTK/KeepItSecret.jpg","imgNWTK/FindOutNow.jpg","NaN","NaN","","",""
"null","<p><b> Congratulations, you have finished this block. </b> </p><p>Please take a short break before moving onto the next block.</p><p>The next block will start after a 15 second break.</p><b>Remember, the point rewards are the same between blocks","","html-keyboard-response","55","1517520","0.0-9.0","female","29","aus","81742","25062","neither","neither","imgNWTK/KeepItSecret.jpg","imgNWTK/FindOutNow.jpg","info","eq","2.35","","","","","","","","","","","","null","",""
"34287","","","bandit-task-exp6","56","1580714","0.0-10.0-0.0","female","29","aus","81742","25062","neither","neither","imgNWTK/KeepItSecret.jpg","imgNWTK/FindOutNow.jpg","info","eq","2.35","","46","2","1","0","null","imgNWTK/FindOutNow.jpg","imgNWTK/KeepItSecret.jpg","imgNWTK/FindOutNow.jpg","50","10","","",""
"7396","","","bandit-task-exp6","57","1627182","0.0-10.0-0.1","female","29","aus","81742","25062","neither","neither","imgNWTK/KeepItSecret.jpg","imgNWTK/FindOutNow.jpg","info","eq","2.35","","47","2","1","0","null","imgNWTK/KeepItSecret.jpg","imgNWTK/FindOutNow.jpg","imgNWTK/FindOutNow.jpg","10","10","","",""
"4260","","","bandit-task-exp6","58","1656948","0.0-10.0-0.2","female","29","aus","81742","25062","neither","neither","imgNWTK/KeepItSecret.jpg","imgNWTK/FindOutNow.jpg","info","eq","2.35","","48","1","1","92","null","imgNWTK/KeepItSecret.jpg","imgNWTK/FindOutNow.jpg","imgNWTK/KeepItSecret.jpg","10","10","","",""
"4077","","","bandit-task-exp6","59","1683481","0.0-10.0-0.3","female","29","aus","81742","25062","neither","neither","imgNWTK/KeepItSecret.jpg","imgNWTK/FindOutNow.jpg","info","eq","2.35","","49","2","1","0","null","imgNWTK/FindOutNow.jpg","imgNWTK/KeepItSecret.jpg","imgNWTK/FindOutNow.jpg","1","1","","",""
"3927","","","bandit-task-exp6","60","1713698","0.0-10.0-0.4","female","29","aus","81742","25062","neither","neither","imgNWTK/KeepItSecret.jpg","imgNWTK/FindOutNow.jpg","info","eq","2.35","","50","1","1","110","null","imgNWTK/FindOutNow.jpg","imgNWTK/KeepItSecret.jpg","imgNWTK/KeepItSecret.jpg","1","1","","",""
"2661","","","bandit-task-exp6","61","1738280","0.0-10.0-0.5","female","29","aus","81742","25062","neither","neither","imgNWTK/KeepItSecret.jpg","imgNWTK/FindOutNow.jpg","info","eq","2.35","","51","2","1","0","null","imgNWTK/FindOutNow.jpg","imgNWTK/KeepItSecret.jpg","imgNWTK/FindOutNow.jpg","1","1","","",""
"3080","","","bandit-task-exp6","62","1765382","0.0-10.0-0.6","female","29","aus","81742","25062","neither","neither","imgNWTK/KeepItSecret.jpg","imgNWTK/FindOutNow.jpg","info","eq","2.35","","52","1","2","0","null","imgNWTK/FindOutNow.jpg","imgNWTK/KeepItSecret.jpg","imgNWTK/KeepItSecret.jpg","1","1","","",""
"3110","","","bandit-task-exp6","63","1792766","0.0-10.0-0.7","female","29","aus","81742","25062","neither","neither","imgNWTK/KeepItSecret.jpg","imgNWTK/FindOutNow.jpg","info","eq","2.35","","53","2","1","0","null","imgNWTK/FindOutNow.jpg","imgNWTK/KeepItSecret.jpg","imgNWTK/FindOutNow.jpg","1","1","","",""
"3275","","","bandit-task-exp6","64","1818630","0.0-10.0-0.8","female","29","aus","81742","25062","neither","neither","imgNWTK/KeepItSecret.jpg","imgNWTK/FindOutNow.jpg","info","eq","2.35","","54","2","2","95","null","imgNWTK/KeepItSecret.jpg","imgNWTK/FindOutNow.jpg","imgNWTK/FindOutNow.jpg","1","1","","",""
"4330","","","bandit-task-exp6","65","1845796","0.0-10.0-0.9","female","29","aus","81742","25062","neither","neither","imgNWTK/KeepItSecret.jpg","imgNWTK/FindOutNow.jpg","info","eq","2.35","","55","2","2","100","null","imgNWTK/KeepItSecret.jpg","imgNWTK/FindOutNow.jpg","imgNWTK/FindOutNow.jpg","1","1","","",""
"3580","","","bandit-task-exp6","66","1872099","0.0-10.0-0.10","female","29","aus","81742","25062","neither","neither","imgNWTK/KeepItSecret.jpg","imgNWTK/FindOutNow.jpg","info","eq","2.35","","56","1","2","0","null","imgNWTK/FindOutNow.jpg","imgNWTK/KeepItSecret.jpg","imgNWTK/KeepItSecret.jpg","1","1","","",""
"4893","","","bandit-task-exp6","67","1899915","0.0-10.0-0.11","female","29","aus","81742","25062","neither","neither","imgNWTK/KeepItSecret.jpg","imgNWTK/FindOutNow.jpg","info","eq","2.35","","57","1","2","0","null","imgNWTK/FindOutNow.jpg","imgNWTK/KeepItSecret.jpg","imgNWTK/KeepItSecret.jpg","1","1","","",""
"2327","","","bandit-task-exp6","68","1924381","0.0-10.0-0.12","female","29","aus","81742","25062","neither","neither","imgNWTK/KeepItSecret.jpg","imgNWTK/FindOutNow.jpg","info","eq","2.35","","58","1","2","0","null","imgNWTK/KeepItSecret.jpg","imgNWTK/FindOutNow.jpg","imgNWTK/KeepItSecret.jpg","1","1","","",""
"2627","","","bandit-task-exp6","69","1962015","0.0-10.0-0.13","female","29","aus","81742","25062","neither","neither","imgNWTK/KeepItSecret.jpg","imgNWTK/FindOutNow.jpg","info","eq","2.35","","59","2","1","0","null","imgNWTK/FindOutNow.jpg","imgNWTK/KeepItSecret.jpg","imgNWTK/FindOutNow.jpg","1","1","","",""
"4394","","","bandit-task-exp6","70","1989032","0.0-10.0-0.14","female","29","aus","81742","25062","neither","neither","imgNWTK/KeepItSecret.jpg","imgNWTK/FindOutNow.jpg","info","eq","2.35","","60","1","2","0","null","imgNWTK/FindOutNow.jpg","imgNWTK/KeepItSecret.jpg","imgNWTK/KeepItSecret.jpg","1","1","","",""
"4994","<p> Congratulations, you have finished the main part of the experiment. </p><p>Before you finish, we have a few short questions about the options and outcomes you saw in the task.</p>","0","html-button-response","71","1994030","0.0-11.0","female","29","aus","81742","25062","neither","neither","imgNWTK/KeepItSecret.jpg","imgNWTK/FindOutNow.jpg","info","eq","2.35","","","","","","","","","","","","","",""
"17032","<p><b>Now, imagine that you clicked on the below button for another 10 trials (this includes <i> BOTH WIN and NO-WIN trials</i>).</p> <img src= 'imgNWTK/KeepItSecret.jpg'></img></br></br> <p><b>Please type the reward (number of points) you would expect to receive on every trial.</br> Click start to begin.</p>","0","html-button-response","72","2011064","0.0-12.0","female","29","aus","81742","25062","neither","neither","imgNWTK/KeepItSecret.jpg","imgNWTK/FindOutNow.jpg","info","eq","2.35","","","","","","","","","","","","","",""
"6979.4000000059605","","","survey-number","73","2018049","0.0-13.0-0.0","female","29","aus","81742","25062","neither","neither","imgNWTK/KeepItSecret.jpg","imgNWTK/FindOutNow.jpg","info","eq","2.35","{""undefined"":""1""}","","","","","","","","","","","","imgNWTK/KeepItSecret.jpg",""
"4794.9000000059605","","","survey-number","74","2022848","0.0-13.0-0.1","female","29","aus","81742","25062","neither","neither","imgNWTK/KeepItSecret.jpg","imgNWTK/FindOutNow.jpg","info","eq","2.35","{""undefined"":""90""}","","","","","","","","","","","","imgNWTK/KeepItSecret.jpg",""
"1879","","","survey-number","75","2024732","0.0-13.0-0.2","female","29","aus","81742","25062","neither","neither","imgNWTK/KeepItSecret.jpg","imgNWTK/FindOutNow.jpg","info","eq","2.35","{""undefined"":""120""}","","","","","","","","","","","","imgNWTK/KeepItSecret.jpg",""
"3277.5","","","survey-number","76","2028015","0.0-13.0-0.3","female","29","aus","81742","25062","neither","neither","imgNWTK/KeepItSecret.jpg","imgNWTK/FindOutNow.jpg","info","eq","2.35","{""undefined"":""111""}","","","","","","","","","","","","imgNWTK/KeepItSecret.jpg",""
"1644.7999999821186","","","survey-number","77","2029663","0.0-13.0-0.4","female","29","aus","81742","25062","neither","neither","imgNWTK/KeepItSecret.jpg","imgNWTK/FindOutNow.jpg","info","eq","2.35","{""undefined"":""100""}","","","","","","","","","","","","imgNWTK/KeepItSecret.jpg",""
"1782.4000000059605","","","survey-number","78","2031448","0.0-13.0-0.5","female","29","aus","81742","25062","neither","neither","imgNWTK/KeepItSecret.jpg","imgNWTK/FindOutNow.jpg","info","eq","2.35","{""undefined"":""90""}","","","","","","","","","","","","imgNWTK/KeepItSecret.jpg",""
"1313.800000011921","","","survey-number","79","2032765","0.0-13.0-0.6","female","29","aus","81742","25062","neither","neither","imgNWTK/KeepItSecret.jpg","imgNWTK/FindOutNow.jpg","info","eq","2.35","{""undefined"":""0""}","","","","","","","","","","","","imgNWTK/KeepItSecret.jpg",""
"2245.4000000059605","","","survey-number","80","2035016","0.0-13.0-0.7","female","29","aus","81742","25062","neither","neither","imgNWTK/KeepItSecret.jpg","imgNWTK/FindOutNow.jpg","info","eq","2.35","{""undefined"":""0""}","","","","","","","","","","","","imgNWTK/KeepItSecret.jpg",""
"1876.4000000059605","","","survey-number","81","2036898","0.0-13.0-0.8","female","29","aus","81742","25062","neither","neither","imgNWTK/KeepItSecret.jpg","imgNWTK/FindOutNow.jpg","info","eq","2.35","{""undefined"":""0""}","","","","","","","","","","","","imgNWTK/KeepItSecret.jpg",""
"1796.4000000059605","","","survey-number","82","2038699","0.0-13.0-0.9","female","29","aus","81742","25062","neither","neither","imgNWTK/KeepItSecret.jpg","imgNWTK/FindOutNow.jpg","info","eq","2.35","{""undefined"":""0""}","","","","","","","","","","","","imgNWTK/KeepItSecret.jpg",""
"1045","<p><b>Imagine that you clicked on the below button for another 10 trials (this includes <i> both WIN and NO-WIN trials</i>).</p> <img src= 'imgNWTK/FindOutNow.jpg'></img></br></br> <p><b>Please type the reward (number of points) you would expect to receive on every trial.</br> Click start to begin.</p>","0","html-button-response","83","2039748","0.0-14.0","female","29","aus","81742","25062","neither","neither","imgNWTK/KeepItSecret.jpg","imgNWTK/FindOutNow.jpg","info","eq","2.35","","","","","","","","","","","","","",""
"1845","","","survey-number","84","2041599","0.0-15.0-0.0","female","29","aus","81742","25062","neither","neither","imgNWTK/KeepItSecret.jpg","imgNWTK/FindOutNow.jpg","info","eq","2.35","{""undefined"":""100""}","","","","","","","","","","","","imgNWTK/FindOutNow.jpg",""
"1878.7999999821186","","","survey-number","85","2043482","0.0-15.0-0.1","female","29","aus","81742","25062","neither","neither","imgNWTK/KeepItSecret.jpg","imgNWTK/FindOutNow.jpg","info","eq","2.35","{""undefined"":""100""}","","","","","","","","","","","","imgNWTK/FindOutNow.jpg",""
"2094.699999988079","","","survey-number","86","2045582","0.0-15.0-0.2","female","29","aus","81742","25062","neither","neither","imgNWTK/KeepItSecret.jpg","imgNWTK/FindOutNow.jpg","info","eq","2.35","{""undefined"":""120""}","","","","","","","","","","","","imgNWTK/FindOutNow.jpg",""
"1677.9000000059605","","","survey-number","87","2047265","0.0-15.0-0.3","female","29","aus","81742","25062","neither","neither","imgNWTK/KeepItSecret.jpg","imgNWTK/FindOutNow.jpg","info","eq","2.35","{""undefined"":""0""}","","","","","","","","","","","","imgNWTK/FindOutNow.jpg",""
"2161.0999999940395","","","survey-number","88","2049430","0.0-15.0-0.4","female","29","aus","81742","25062","neither","neither","imgNWTK/KeepItSecret.jpg","imgNWTK/FindOutNow.jpg","info","eq","2.35","{""undefined"":""0""}","","","","","","","","","","","","imgNWTK/FindOutNow.jpg",""
"1463.5999999940395","","","survey-number","89","2050897","0.0-15.0-0.5","female","29","aus","81742","25062","neither","neither","imgNWTK/KeepItSecret.jpg","imgNWTK/FindOutNow.jpg","info","eq","2.35","{""undefined"":""0""}","","","","","","","","","","","","imgNWTK/FindOutNow.jpg",""
"2548.5","","","survey-number","90","2053448","0.0-15.0-0.6","female","29","aus","81742","25062","neither","neither","imgNWTK/KeepItSecret.jpg","imgNWTK/FindOutNow.jpg","info","eq","2.35","{""undefined"":""100""}","","","","","","","","","","","","imgNWTK/FindOutNow.jpg",""
"1661.6000000238419","","","survey-number","91","2055115","0.0-15.0-0.7","female","29","aus","81742","25062","neither","neither","imgNWTK/KeepItSecret.jpg","imgNWTK/FindOutNow.jpg","info","eq","2.35","{""undefined"":""100""}","","","","","","","","","","","","imgNWTK/FindOutNow.jpg",""
"1978.2000000178814","","","survey-number","92","2057098","0.0-15.0-0.8","female","29","aus","81742","25062","neither","neither","imgNWTK/KeepItSecret.jpg","imgNWTK/FindOutNow.jpg","info","eq","2.35","{""undefined"":""100""}","","","","","","","","","","","","imgNWTK/FindOutNow.jpg",""
"2446.0999999940395","","","survey-number","93","2059548","0.0-15.0-0.9","female","29","aus","81742","25062","neither","neither","imgNWTK/KeepItSecret.jpg","imgNWTK/FindOutNow.jpg","info","eq","2.35","{""undefined"":""100""}","","","","","","","","","","","","imgNWTK/FindOutNow.jpg",""
"12942.300000011921","","","survey-number","94","2072499","0.0-16.0","female","29","aus","81742","25062","neither","neither","imgNWTK/KeepItSecret.jpg","imgNWTK/FindOutNow.jpg","info","eq","2.35","{""undefined"":""50""}","","","","","","","","","","","","","imgNWTK/KeepItSecret.jpg"
"2527","","","survey-number","95","2075031","0.0-17.0","female","29","aus","81742","25062","neither","neither","imgNWTK/KeepItSecret.jpg","imgNWTK/FindOutNow.jpg","info","eq","2.35","{""undefined"":""50""}","","","","","","","","","","","","","imgNWTK/FindOutNow.jpg"
"18830","<p style=""text-align:left;"">Great! We are almost at the end of the study... (Please do not close the browser window yet.)</p><p> Your final points balance is 2346, which equals to a bonus payment of $2.35. Please collect your payment from Mathews Building Room 721 (Mon-Fri 9am-5pm); please email amy.x.li@unsw.edu.au at least 24 hours prior to collection so that this is ready for you.</p><p style=""text-align:left;"">To view the debriefing form, please click <a href=""./imgNWTK/debrief_3205.pdf"" target=""_blank"">here</a> to download a copy.</p><p style=""text-align:left;"">Then, <b>please click the below button</b> to confirm that you have received your debrief and to complete the study. Upon clicking ""Finish!"", your SONA credit will be automatically assigned.</p>","0","html-button-response","96","2093865","0.0-18.0","female","29","aus","81742","25062","neither","neither","imgNWTK/KeepItSecret.jpg","imgNWTK/FindOutNow.jpg","info","eq","2.35","","","","","","","","","","","","","",""
