"rt","stimulus","button_pressed","trial_type","trial_index","time_elapsed","internal_node_id","gender","age","language","PID","sona_id","subStim","optStim","stim1","stim2","infoCond","optimCond","bonus","responses","banditTrial","choice","cue","feedback","estimateData","leftOption","rightOption","choiceName","leftInput","rightInput","key_press","postQ","singleEst"
"5439","<p>Thank you for signing up to participate in SONA Study 465! <br> During this study, please focus on the experiment and refrain from activities such as:</p>- <b>Switching to other tabs on your browser (this will be monitored via the experiment)</br> - Using your mobile phone/cell phone</br> - Communicating with others</br></br></b><p>This way, you are helping to provide data that is useful for psychological research. We thank you for your cooperation!</p>","0","html-button-response","0","5466","0.0-0.0","female","19","Australia","48915","25847","imgNWTK/square.png","imgNWTK/triangle.png","imgNWTK/square.png","imgNWTK/triangle.png","noninfo","sub","2.65","","","","","","","","","","","","","",""
"4043","<p>Welcome to the experiment!</p><p>You will now read some instructions about the task. Press the 'Next' button to continue. </p>","0","html-button-response","1","9512","0.0-1.0","female","19","Australia","48915","25847","imgNWTK/square.png","imgNWTK/triangle.png","imgNWTK/square.png","imgNWTK/triangle.png","noninfo","sub","2.65","","","","","","","","","","","","","",""
"18856","<p> On each trial throughout the experiment you will choose between two options, </br>a <b>Black Square </b> and <b> Black Triangle </b>, as seen below.</p><div><div style= 'float: left; width: 300px; margin: 10px 10px;'><img src= 'imgNWTK/square.png'></img></div><div style= 'float: right; width: 300px; margin: 10px 10px;'><img src= 'imgNWTK/triangle.png'></img></div></div><br/><br/><br/><br/><br/><br/><br/><br/><br/><br/><br/><p>Each option results in winning points or receiving 0 points.</br>There is a 50% chance of either winning or receiving 0 points.</p><p>You won't receive the outcome until after a <b> 20 second delay</b>.</p>","0","html-button-response","2","28376","0.0-2.0-0.0","female","19","Australia","48915","25847","imgNWTK/square.png","imgNWTK/triangle.png","imgNWTK/square.png","imgNWTK/triangle.png","noninfo","sub","2.65","","","","","","","","","","","","","",""
"34556","<img src= 'imgNWTK/NonInfoDiagram.png'></img><p>As seen above, whether you choose the square or triangle, you will receive a coloured circle after the choice. </p> <p>This circle will be on screen for 20 seconds until you win points or receive 0 points.</p><p>The coloured circle depends on which option you chose. </br> In the above example, choosing a triangle leads to a green circle and choosing the square leads to a red circle.</p>Please note: the circles in your task will be different to the above colours.</br></br>","0","html-button-response","3","62936","0.0-2.0-1.0","female","19","Australia","48915","25847","imgNWTK/square.png","imgNWTK/triangle.png","imgNWTK/square.png","imgNWTK/triangle.png","noninfo","sub","2.65","","","","","","","","","","","","","",""
"8233","<img src= 'cues/winTrials_noInfo.png' width = '1200'></img><p>To reiterate, 50% of the outcomes of each option will be WIN TRIALS, and the other 50% will be NO-WIN TRIALS.","0","html-button-response","4","71172","0.0-2.0-2.0","female","19","Australia","48915","25847","imgNWTK/square.png","imgNWTK/triangle.png","imgNWTK/square.png","imgNWTK/triangle.png","noninfo","sub","2.65","","","","","","","","","","","","","",""
"10191","<p> There will be <b>four blocks</b> in the experiment.</br>You will be given a short 15 second break between each block.</p><p><b>The points and the options will remain the same between the blocks.</b></p>The blocks are there just to give you a small break.</br></br></br></br><p>The points you earn in the task are also equal to <b> actual money</b>.</br> <b>1000 points is equal to $1 USD</b></p><p>This is the rate you will be paid at the experiment's end.","0","html-button-response","5","81366","0.0-2.0-3.0","female","19","Australia","48915","25847","imgNWTK/square.png","imgNWTK/triangle.png","imgNWTK/square.png","imgNWTK/triangle.png","noninfo","sub","2.65","","","","","","","","","","","","","",""
"6705","","","survey-multi-choice","6","88112","0.0-2.0-4.0","female","19","Australia","48915","25847","imgNWTK/square.png","imgNWTK/triangle.png","imgNWTK/square.png","imgNWTK/triangle.png","noninfo","sub","2.65","{""Q0"":""20 Seconds"",""Q1"":""True"",""Q2"":""Equally""}","","","","","","","","","","","","",""
"1363","<p> Well done, all your answers were correct! <br> The experiment is about to start now. <br/> Click start to continue, or email your researcher <b>(amy.x.li@unsw.edu.au)</b> if you have any questions before starting.","0","html-button-response","7","89489","0.0-3.0","female","19","Australia","48915","25847","imgNWTK/square.png","imgNWTK/triangle.png","imgNWTK/square.png","imgNWTK/triangle.png","noninfo","sub","2.65","","","","","","","","","","","","","",""
"2397","","","bandit-task-exp6","8","114400","0.0-4.0-0.0","female","19","Australia","48915","25847","imgNWTK/square.png","imgNWTK/triangle.png","imgNWTK/square.png","imgNWTK/triangle.png","noninfo","sub","2.65","","1","2","1","0","null","imgNWTK/triangle.png","imgNWTK/square.png","imgNWTK/triangle.png","NaN","NaN","","",""
"1426","","","bandit-task-exp6","9","144838","0.0-4.0-0.1","female","19","Australia","48915","25847","imgNWTK/square.png","imgNWTK/triangle.png","imgNWTK/square.png","imgNWTK/triangle.png","noninfo","sub","2.65","","2","1","1","114","null","imgNWTK/square.png","imgNWTK/triangle.png","imgNWTK/square.png","NaN","NaN","","",""
"2347","","","bandit-task-exp6","10","172531","0.0-4.0-0.2","female","19","Australia","48915","25847","imgNWTK/square.png","imgNWTK/triangle.png","imgNWTK/square.png","imgNWTK/triangle.png","noninfo","sub","2.65","","3","2","2","86","null","imgNWTK/triangle.png","imgNWTK/square.png","imgNWTK/triangle.png","NaN","NaN","","",""
"1209","","","bandit-task-exp6","11","196394","0.0-4.0-0.3","female","19","Australia","48915","25847","imgNWTK/square.png","imgNWTK/triangle.png","imgNWTK/square.png","imgNWTK/triangle.png","noninfo","sub","2.65","","4","1","1","127","null","imgNWTK/triangle.png","imgNWTK/square.png","imgNWTK/square.png","NaN","NaN","","",""
"2351","","","bandit-task-exp6","12","221461","0.0-4.0-0.4","female","19","Australia","48915","25847","imgNWTK/square.png","imgNWTK/triangle.png","imgNWTK/square.png","imgNWTK/triangle.png","noninfo","sub","2.65","","5","1","2","0","null","imgNWTK/triangle.png","imgNWTK/square.png","imgNWTK/square.png","NaN","NaN","","",""
"1081","","","bandit-task-exp6","13","244656","0.0-4.0-0.5","female","19","Australia","48915","25847","imgNWTK/square.png","imgNWTK/triangle.png","imgNWTK/square.png","imgNWTK/triangle.png","noninfo","sub","2.65","","6","2","1","0","null","imgNWTK/triangle.png","imgNWTK/square.png","imgNWTK/triangle.png","NaN","NaN","","",""
"2251","","","bandit-task-exp6","14","270410","0.0-4.0-0.6","female","19","Australia","48915","25847","imgNWTK/square.png","imgNWTK/triangle.png","imgNWTK/square.png","imgNWTK/triangle.png","noninfo","sub","2.65","","7","1","1","129","null","imgNWTK/square.png","imgNWTK/triangle.png","imgNWTK/square.png","NaN","NaN","","",""
"1248","","","bandit-task-exp6","15","295176","0.0-4.0-0.7","female","19","Australia","48915","25847","imgNWTK/square.png","imgNWTK/triangle.png","imgNWTK/square.png","imgNWTK/triangle.png","noninfo","sub","2.65","","8","2","2","82","null","imgNWTK/square.png","imgNWTK/triangle.png","imgNWTK/triangle.png","NaN","NaN","","",""
"1114","","","bandit-task-exp6","16","325725","0.0-4.0-0.8","female","19","Australia","48915","25847","imgNWTK/square.png","imgNWTK/triangle.png","imgNWTK/square.png","imgNWTK/triangle.png","noninfo","sub","2.65","","9","2","1","0","null","imgNWTK/triangle.png","imgNWTK/square.png","imgNWTK/triangle.png","NaN","NaN","","",""
"1263","","","bandit-task-exp6","17","348472","0.0-4.0-0.9","female","19","Australia","48915","25847","imgNWTK/square.png","imgNWTK/triangle.png","imgNWTK/square.png","imgNWTK/triangle.png","noninfo","sub","2.65","","10","1","1","125","null","imgNWTK/square.png","imgNWTK/triangle.png","imgNWTK/square.png","NaN","NaN","","",""
"3870","","","bandit-task-exp6","18","377272","0.0-4.0-0.10","female","19","Australia","48915","25847","imgNWTK/square.png","imgNWTK/triangle.png","imgNWTK/square.png","imgNWTK/triangle.png","noninfo","sub","2.65","","11","1","1","113","null","imgNWTK/triangle.png","imgNWTK/square.png","imgNWTK/square.png","NaN","NaN","","",""
"1755","","","bandit-task-exp6","19","402093","0.0-4.0-0.11","female","19","Australia","48915","25847","imgNWTK/square.png","imgNWTK/triangle.png","imgNWTK/square.png","imgNWTK/triangle.png","noninfo","sub","2.65","","12","2","2","89","null","imgNWTK/triangle.png","imgNWTK/square.png","imgNWTK/triangle.png","NaN","NaN","","",""
"786","","","bandit-task-exp6","20","431915","0.0-4.0-0.12","female","19","Australia","48915","25847","imgNWTK/square.png","imgNWTK/triangle.png","imgNWTK/square.png","imgNWTK/triangle.png","noninfo","sub","2.65","","13","2","1","0","null","imgNWTK/square.png","imgNWTK/triangle.png","imgNWTK/triangle.png","NaN","NaN","","",""
"1433","","","bandit-task-exp6","21","456848","0.0-4.0-0.13","female","19","Australia","48915","25847","imgNWTK/square.png","imgNWTK/triangle.png","imgNWTK/square.png","imgNWTK/triangle.png","noninfo","sub","2.65","","14","2","1","0","null","imgNWTK/triangle.png","imgNWTK/square.png","imgNWTK/triangle.png","NaN","NaN","","",""
"1307","","","bandit-task-exp6","22","480313","0.0-4.0-0.14","female","19","Australia","48915","25847","imgNWTK/square.png","imgNWTK/triangle.png","imgNWTK/square.png","imgNWTK/triangle.png","noninfo","sub","2.65","","15","2","1","0","null","imgNWTK/square.png","imgNWTK/triangle.png","imgNWTK/triangle.png","NaN","NaN","","",""
"null","<p><b> Congratulations, you have finished this block. </b> </p><p>Please take a short break before moving onto the next block.</p><p>The next block will start after a 15 second break.</p><b>Remember, the point rewards are the same between blocks","","html-keyboard-response","23","495333","0.0-5.0","female","19","Australia","48915","25847","imgNWTK/square.png","imgNWTK/triangle.png","imgNWTK/square.png","imgNWTK/triangle.png","noninfo","sub","2.65","","","","","","","","","","","","null","",""
"3179","","","bandit-task-exp6","24","521021","0.0-6.0-0.0","female","19","Australia","48915","25847","imgNWTK/square.png","imgNWTK/triangle.png","imgNWTK/square.png","imgNWTK/triangle.png","noninfo","sub","2.65","","16","1","1","118","null","imgNWTK/square.png","imgNWTK/triangle.png","imgNWTK/square.png","NaN","NaN","","",""
"2052","","","bandit-task-exp6","25","550917","0.0-6.0-0.1","female","19","Australia","48915","25847","imgNWTK/square.png","imgNWTK/triangle.png","imgNWTK/square.png","imgNWTK/triangle.png","noninfo","sub","2.65","","17","2","1","0","null","imgNWTK/square.png","imgNWTK/triangle.png","imgNWTK/triangle.png","NaN","NaN","","",""
"3730","","","bandit-task-exp6","26","577320","0.0-6.0-0.2","female","19","Australia","48915","25847","imgNWTK/square.png","imgNWTK/triangle.png","imgNWTK/square.png","imgNWTK/triangle.png","noninfo","sub","2.65","","18","1","2","0","null","imgNWTK/square.png","imgNWTK/triangle.png","imgNWTK/square.png","NaN","NaN","","",""
"1212","","","bandit-task-exp6","27","602205","0.0-6.0-0.3","female","19","Australia","48915","25847","imgNWTK/square.png","imgNWTK/triangle.png","imgNWTK/square.png","imgNWTK/triangle.png","noninfo","sub","2.65","","19","1","1","117","null","imgNWTK/square.png","imgNWTK/triangle.png","imgNWTK/square.png","NaN","NaN","","",""
"956","","","bandit-task-exp6","28","625902","0.0-6.0-0.4","female","19","Australia","48915","25847","imgNWTK/square.png","imgNWTK/triangle.png","imgNWTK/square.png","imgNWTK/triangle.png","noninfo","sub","2.65","","20","2","1","0","null","imgNWTK/square.png","imgNWTK/triangle.png","imgNWTK/triangle.png","NaN","NaN","","",""
"2458","","","bandit-task-exp6","29","662985","0.0-6.0-0.5","female","19","Australia","48915","25847","imgNWTK/square.png","imgNWTK/triangle.png","imgNWTK/square.png","imgNWTK/triangle.png","noninfo","sub","2.65","","21","2","2","79","null","imgNWTK/square.png","imgNWTK/triangle.png","imgNWTK/triangle.png","NaN","NaN","","",""
"7795","","","bandit-task-exp6","30","694385","0.0-6.0-0.6","female","19","Australia","48915","25847","imgNWTK/square.png","imgNWTK/triangle.png","imgNWTK/square.png","imgNWTK/triangle.png","noninfo","sub","2.65","","22","2","2","74","null","imgNWTK/triangle.png","imgNWTK/square.png","imgNWTK/triangle.png","NaN","NaN","","",""
"1645","","","bandit-task-exp6","31","720138","0.0-6.0-0.7","female","19","Australia","48915","25847","imgNWTK/square.png","imgNWTK/triangle.png","imgNWTK/square.png","imgNWTK/triangle.png","noninfo","sub","2.65","","23","1","1","127","null","imgNWTK/triangle.png","imgNWTK/square.png","imgNWTK/square.png","NaN","NaN","","",""
"724","","","bandit-task-exp6","32","747331","0.0-6.0-0.8","female","19","Australia","48915","25847","imgNWTK/square.png","imgNWTK/triangle.png","imgNWTK/square.png","imgNWTK/triangle.png","noninfo","sub","2.65","","24","1","2","0","null","imgNWTK/square.png","imgNWTK/triangle.png","imgNWTK/square.png","NaN","NaN","","",""
"3393","","","bandit-task-exp6","33","775670","0.0-6.0-0.9","female","19","Australia","48915","25847","imgNWTK/square.png","imgNWTK/triangle.png","imgNWTK/square.png","imgNWTK/triangle.png","noninfo","sub","2.65","","25","1","2","0","null","imgNWTK/triangle.png","imgNWTK/square.png","imgNWTK/square.png","NaN","NaN","","",""
"931","","","bandit-task-exp6","34","800437","0.0-6.0-0.10","female","19","Australia","48915","25847","imgNWTK/square.png","imgNWTK/triangle.png","imgNWTK/square.png","imgNWTK/triangle.png","noninfo","sub","2.65","","26","2","1","0","null","imgNWTK/square.png","imgNWTK/triangle.png","imgNWTK/triangle.png","NaN","NaN","","",""
"963","","","bandit-task-exp6","35","825437","0.0-6.0-0.11","female","19","Australia","48915","25847","imgNWTK/square.png","imgNWTK/triangle.png","imgNWTK/square.png","imgNWTK/triangle.png","noninfo","sub","2.65","","27","1","2","0","null","imgNWTK/square.png","imgNWTK/triangle.png","imgNWTK/square.png","NaN","NaN","","",""
"1363","","","bandit-task-exp6","36","848833","0.0-6.0-0.12","female","19","Australia","48915","25847","imgNWTK/square.png","imgNWTK/triangle.png","imgNWTK/square.png","imgNWTK/triangle.png","noninfo","sub","2.65","","28","1","2","0","null","imgNWTK/triangle.png","imgNWTK/square.png","imgNWTK/square.png","NaN","NaN","","",""
"650","","","bandit-task-exp6","37","872713","0.0-6.0-0.13","female","19","Australia","48915","25847","imgNWTK/square.png","imgNWTK/triangle.png","imgNWTK/square.png","imgNWTK/triangle.png","noninfo","sub","2.65","","29","2","2","82","null","imgNWTK/triangle.png","imgNWTK/square.png","imgNWTK/triangle.png","NaN","NaN","","",""
"2868","","","bandit-task-exp6","38","898100","0.0-6.0-0.14","female","19","Australia","48915","25847","imgNWTK/square.png","imgNWTK/triangle.png","imgNWTK/square.png","imgNWTK/triangle.png","noninfo","sub","2.65","","30","2","1","0","null","imgNWTK/square.png","imgNWTK/triangle.png","imgNWTK/triangle.png","NaN","NaN","","",""
"null","<p><b> Congratulations, you have finished this block. </b> </p><p>Please take a short break before moving onto the next block.</p><p>The next block will start after a 15 second break.</p><b>Remember, the point rewards are the same between blocks","","html-keyboard-response","39","913106","0.0-7.0","female","19","Australia","48915","25847","imgNWTK/square.png","imgNWTK/triangle.png","imgNWTK/square.png","imgNWTK/triangle.png","noninfo","sub","2.65","","","","","","","","","","","","null","",""
"2300","","","bandit-task-exp6","40","937420","0.0-8.0-0.0","female","19","Australia","48915","25847","imgNWTK/square.png","imgNWTK/triangle.png","imgNWTK/square.png","imgNWTK/triangle.png","noninfo","sub","2.65","","31","2","1","0","null","imgNWTK/triangle.png","imgNWTK/square.png","imgNWTK/triangle.png","NaN","NaN","","",""
"1030","","","bandit-task-exp6","41","960465","0.0-8.0-0.1","female","19","Australia","48915","25847","imgNWTK/square.png","imgNWTK/triangle.png","imgNWTK/square.png","imgNWTK/triangle.png","noninfo","sub","2.65","","32","2","2","75","null","imgNWTK/triangle.png","imgNWTK/square.png","imgNWTK/triangle.png","NaN","NaN","","",""
"1315","","","bandit-task-exp6","42","989289","0.0-8.0-0.2","female","19","Australia","48915","25847","imgNWTK/square.png","imgNWTK/triangle.png","imgNWTK/square.png","imgNWTK/triangle.png","noninfo","sub","2.65","","33","1","2","0","null","imgNWTK/triangle.png","imgNWTK/square.png","imgNWTK/square.png","NaN","NaN","","",""
"572","","","bandit-task-exp6","43","1025122","0.0-8.0-0.3","female","19","Australia","48915","25847","imgNWTK/square.png","imgNWTK/triangle.png","imgNWTK/square.png","imgNWTK/triangle.png","noninfo","sub","2.65","","34","1","1","116","null","imgNWTK/triangle.png","imgNWTK/square.png","imgNWTK/square.png","NaN","NaN","","",""
"1314","","","bandit-task-exp6","44","1052027","0.0-8.0-0.4","female","19","Australia","48915","25847","imgNWTK/square.png","imgNWTK/triangle.png","imgNWTK/square.png","imgNWTK/triangle.png","noninfo","sub","2.65","","35","2","1","0","null","imgNWTK/square.png","imgNWTK/triangle.png","imgNWTK/triangle.png","NaN","NaN","","",""
"847","","","bandit-task-exp6","45","1074570","0.0-8.0-0.5","female","19","Australia","48915","25847","imgNWTK/square.png","imgNWTK/triangle.png","imgNWTK/square.png","imgNWTK/triangle.png","noninfo","sub","2.65","","36","2","2","82","null","imgNWTK/square.png","imgNWTK/triangle.png","imgNWTK/triangle.png","NaN","NaN","","",""
"781","","","bandit-task-exp6","46","1098652","0.0-8.0-0.6","female","19","Australia","48915","25847","imgNWTK/square.png","imgNWTK/triangle.png","imgNWTK/square.png","imgNWTK/triangle.png","noninfo","sub","2.65","","37","2","2","87","null","imgNWTK/square.png","imgNWTK/triangle.png","imgNWTK/triangle.png","NaN","NaN","","",""
"1499","","","bandit-task-exp6","47","1122750","0.0-8.0-0.7","female","19","Australia","48915","25847","imgNWTK/square.png","imgNWTK/triangle.png","imgNWTK/square.png","imgNWTK/triangle.png","noninfo","sub","2.65","","38","2","1","0","null","imgNWTK/square.png","imgNWTK/triangle.png","imgNWTK/triangle.png","NaN","NaN","","",""
"546","","","bandit-task-exp6","48","1146081","0.0-8.0-0.8","female","19","Australia","48915","25847","imgNWTK/square.png","imgNWTK/triangle.png","imgNWTK/square.png","imgNWTK/triangle.png","noninfo","sub","2.65","","39","2","1","0","null","imgNWTK/triangle.png","imgNWTK/square.png","imgNWTK/triangle.png","NaN","NaN","","",""
"862","","","bandit-task-exp6","49","1177531","0.0-8.0-0.9","female","19","Australia","48915","25847","imgNWTK/square.png","imgNWTK/triangle.png","imgNWTK/square.png","imgNWTK/triangle.png","noninfo","sub","2.65","","40","2","2","70","null","imgNWTK/square.png","imgNWTK/triangle.png","imgNWTK/triangle.png","NaN","NaN","","",""
"10706","","","bandit-task-exp6","50","1215716","0.0-8.0-0.10","female","19","Australia","48915","25847","imgNWTK/square.png","imgNWTK/triangle.png","imgNWTK/square.png","imgNWTK/triangle.png","noninfo","sub","2.65","","41","1","2","0","null","imgNWTK/square.png","imgNWTK/triangle.png","imgNWTK/square.png","NaN","NaN","","",""
"3170","","","bandit-task-exp6","51","1242979","0.0-8.0-0.11","female","19","Australia","48915","25847","imgNWTK/square.png","imgNWTK/triangle.png","imgNWTK/square.png","imgNWTK/triangle.png","noninfo","sub","2.65","","42","2","2","72","null","imgNWTK/square.png","imgNWTK/triangle.png","imgNWTK/triangle.png","NaN","NaN","","",""
"2919","","","bandit-task-exp6","52","1272070","0.0-8.0-0.12","female","19","Australia","48915","25847","imgNWTK/square.png","imgNWTK/triangle.png","imgNWTK/square.png","imgNWTK/triangle.png","noninfo","sub","2.65","","43","2","1","0","null","imgNWTK/triangle.png","imgNWTK/square.png","imgNWTK/triangle.png","NaN","NaN","","",""
"826","","","bandit-task-exp6","53","1308752","0.0-8.0-0.13","female","19","Australia","48915","25847","imgNWTK/square.png","imgNWTK/triangle.png","imgNWTK/square.png","imgNWTK/triangle.png","noninfo","sub","2.65","","44","2","1","0","null","imgNWTK/square.png","imgNWTK/triangle.png","imgNWTK/triangle.png","NaN","NaN","","",""
"11043","","","bandit-task-exp6","54","1341926","0.0-8.0-0.14","female","19","Australia","48915","25847","imgNWTK/square.png","imgNWTK/triangle.png","imgNWTK/square.png","imgNWTK/triangle.png","noninfo","sub","2.65","","45","2","1","0","null","imgNWTK/triangle.png","imgNWTK/square.png","imgNWTK/triangle.png","NaN","NaN","","",""
"null","<p><b> Congratulations, you have finished this block. </b> </p><p>Please take a short break before moving onto the next block.</p><p>The next block will start after a 15 second break.</p><b>Remember, the point rewards are the same between blocks","","html-keyboard-response","55","1356929","0.0-9.0","female","19","Australia","48915","25847","imgNWTK/square.png","imgNWTK/triangle.png","imgNWTK/square.png","imgNWTK/triangle.png","noninfo","sub","2.65","","","","","","","","","","","","null","",""
"80683","","","bandit-task-exp6","56","1460044","0.0-10.0-0.0","female","19","Australia","48915","25847","imgNWTK/square.png","imgNWTK/triangle.png","imgNWTK/square.png","imgNWTK/triangle.png","noninfo","sub","2.65","","46","1","1","127","null","imgNWTK/triangle.png","imgNWTK/square.png","imgNWTK/square.png","114","87","","",""
"16138","","","bandit-task-exp6","57","1498933","0.0-10.0-0.1","female","19","Australia","48915","25847","imgNWTK/square.png","imgNWTK/triangle.png","imgNWTK/square.png","imgNWTK/triangle.png","noninfo","sub","2.65","","47","1","2","0","null","imgNWTK/triangle.png","imgNWTK/square.png","imgNWTK/square.png","127","112","","",""
"6711","","","bandit-task-exp6","58","1531554","0.0-10.0-0.2","female","19","Australia","48915","25847","imgNWTK/square.png","imgNWTK/triangle.png","imgNWTK/square.png","imgNWTK/triangle.png","noninfo","sub","2.65","","48","1","2","0","null","imgNWTK/square.png","imgNWTK/triangle.png","imgNWTK/square.png","127","85","","",""
"7396","","","bandit-task-exp6","59","2142976","0.0-10.0-0.3","female","19","Australia","48915","25847","imgNWTK/square.png","imgNWTK/triangle.png","imgNWTK/square.png","imgNWTK/triangle.png","noninfo","sub","2.65","","49","2","2","70","null","imgNWTK/square.png","imgNWTK/triangle.png","imgNWTK/triangle.png","84","127","","",""
"9185","","","bandit-task-exp6","60","2826526","0.0-10.0-0.4","female","19","Australia","48915","25847","imgNWTK/square.png","imgNWTK/triangle.png","imgNWTK/square.png","imgNWTK/triangle.png","noninfo","sub","2.65","","50","1","2","0","null","imgNWTK/triangle.png","imgNWTK/square.png","imgNWTK/square.png","50","84","","",""
"348164","","","bandit-task-exp6","61","3197806","0.0-10.0-0.5","female","19","Australia","48915","25847","imgNWTK/square.png","imgNWTK/triangle.png","imgNWTK/square.png","imgNWTK/triangle.png","noninfo","sub","2.65","","51","2","1","0","null","imgNWTK/square.png","imgNWTK/triangle.png","imgNWTK/triangle.png","603","532","","",""
"33426","","","bandit-task-exp6","62","3637599","0.0-10.0-0.6","female","19","Australia","48915","25847","imgNWTK/square.png","imgNWTK/triangle.png","imgNWTK/square.png","imgNWTK/triangle.png","noninfo","sub","2.65","","52","2","2","87","null","imgNWTK/triangle.png","imgNWTK/square.png","imgNWTK/triangle.png","732","321","","",""
"7855","","","bandit-task-exp6","63","4164767","0.0-10.0-0.7","female","19","Australia","48915","25847","imgNWTK/square.png","imgNWTK/triangle.png","imgNWTK/square.png","imgNWTK/triangle.png","noninfo","sub","2.65","","53","1","1","112","null","imgNWTK/triangle.png","imgNWTK/square.png","imgNWTK/square.png","56","123","","",""
"6357","","","bandit-task-exp6","64","4208588","0.0-10.0-0.8","female","19","Australia","48915","25847","imgNWTK/square.png","imgNWTK/triangle.png","imgNWTK/square.png","imgNWTK/triangle.png","noninfo","sub","2.65","","54","1","2","0","null","imgNWTK/triangle.png","imgNWTK/square.png","imgNWTK/square.png","123","321","","",""
"22539","","","bandit-task-exp6","65","4278235","0.0-10.0-0.9","female","19","Australia","48915","25847","imgNWTK/square.png","imgNWTK/triangle.png","imgNWTK/square.png","imgNWTK/triangle.png","noninfo","sub","2.65","","55","2","2","83","null","imgNWTK/triangle.png","imgNWTK/square.png","imgNWTK/triangle.png","172","542","","",""
"15354","","","bandit-task-exp6","66","4315622","0.0-10.0-0.10","female","19","Australia","48915","25847","imgNWTK/square.png","imgNWTK/triangle.png","imgNWTK/square.png","imgNWTK/triangle.png","noninfo","sub","2.65","","56","2","2","83","null","imgNWTK/square.png","imgNWTK/triangle.png","imgNWTK/triangle.png","83","123","","",""
"5882","","","bandit-task-exp6","67","4354190","0.0-10.0-0.11","female","19","Australia","48915","25847","imgNWTK/square.png","imgNWTK/triangle.png","imgNWTK/square.png","imgNWTK/triangle.png","noninfo","sub","2.65","","57","1","2","0","null","imgNWTK/triangle.png","imgNWTK/square.png","imgNWTK/square.png","56","83","","",""
"12926","","","bandit-task-exp6","68","4389419","0.0-10.0-0.12","female","19","Australia","48915","25847","imgNWTK/square.png","imgNWTK/triangle.png","imgNWTK/square.png","imgNWTK/triangle.png","noninfo","sub","2.65","","58","1","1","126","null","imgNWTK/triangle.png","imgNWTK/square.png","imgNWTK/square.png","123","567","","",""
"6510","","","bandit-task-exp6","69","4418563","0.0-10.0-0.13","female","19","Australia","48915","25847","imgNWTK/square.png","imgNWTK/triangle.png","imgNWTK/square.png","imgNWTK/triangle.png","noninfo","sub","2.65","","59","2","1","0","null","imgNWTK/triangle.png","imgNWTK/square.png","imgNWTK/triangle.png","83","126","","",""
"284710","","","bandit-task-exp6","70","4725642","0.0-10.0-0.14","female","19","Australia","48915","25847","imgNWTK/square.png","imgNWTK/triangle.png","imgNWTK/square.png","imgNWTK/triangle.png","noninfo","sub","2.65","","60","2","1","0","null","imgNWTK/square.png","imgNWTK/triangle.png","imgNWTK/triangle.png","653","123","","",""
"8368","<p> Congratulations, you have finished the main part of the experiment. </p><p>Before you finish, we have a few short questions about the options and outcomes you saw in the task.</p>","0","html-button-response","71","4734036","0.0-11.0","female","19","Australia","48915","25847","imgNWTK/square.png","imgNWTK/triangle.png","imgNWTK/square.png","imgNWTK/triangle.png","noninfo","sub","2.65","","","","","","","","","","","","","",""
"18535","<p><b>Now, imagine that you clicked on the below button for another 10 trials (this includes <i> BOTH WIN and NO-WIN trials</i>).</p> <img src= 'imgNWTK/square.png'></img></br></br> <p><b>Please type the reward (number of points) you would expect to receive on every trial.</br> Click start to begin.</p>","0","html-button-response","72","4752581","0.0-12.0","female","19","Australia","48915","25847","imgNWTK/square.png","imgNWTK/triangle.png","imgNWTK/square.png","imgNWTK/triangle.png","noninfo","sub","2.65","","","","","","","","","","","","","",""
"10429.800000011921","","","survey-number","73","4763041","0.0-13.0-0.0","female","19","Australia","48915","25847","imgNWTK/square.png","imgNWTK/triangle.png","imgNWTK/square.png","imgNWTK/triangle.png","noninfo","sub","2.65","{""undefined"":""82""}","","","","","","","","","","","","imgNWTK/square.png",""
"13307.5","","","survey-number","74","4776354","0.0-13.0-0.1","female","19","Australia","48915","25847","imgNWTK/square.png","imgNWTK/triangle.png","imgNWTK/square.png","imgNWTK/triangle.png","noninfo","sub","2.65","{""undefined"":""173""}","","","","","","","","","","","","imgNWTK/square.png",""
"3300.300000011921","","","survey-number","75","4779663","0.0-13.0-0.2","female","19","Australia","48915","25847","imgNWTK/square.png","imgNWTK/triangle.png","imgNWTK/square.png","imgNWTK/triangle.png","noninfo","sub","2.65","{""undefined"":""84""}","","","","","","","","","","","","imgNWTK/square.png",""
"4169.299999982119","","","survey-number","76","4783840","0.0-13.0-0.3","female","19","Australia","48915","25847","imgNWTK/square.png","imgNWTK/triangle.png","imgNWTK/square.png","imgNWTK/triangle.png","noninfo","sub","2.65","{""undefined"":""63""}","","","","","","","","","","","","imgNWTK/square.png",""
"7777.699999988079","","","survey-number","77","4791627","0.0-13.0-0.4","female","19","Australia","48915","25847","imgNWTK/square.png","imgNWTK/triangle.png","imgNWTK/square.png","imgNWTK/triangle.png","noninfo","sub","2.65","{""undefined"":""82""}","","","","","","","","","","","","imgNWTK/square.png",""
"3066.199999988079","","","survey-number","78","4794702","0.0-13.0-0.5","female","19","Australia","48915","25847","imgNWTK/square.png","imgNWTK/triangle.png","imgNWTK/square.png","imgNWTK/triangle.png","noninfo","sub","2.65","{""undefined"":""114""}","","","","","","","","","","","","imgNWTK/square.png",""
"3737.199999988079","","","survey-number","79","4798445","0.0-13.0-0.6","female","19","Australia","48915","25847","imgNWTK/square.png","imgNWTK/triangle.png","imgNWTK/square.png","imgNWTK/triangle.png","noninfo","sub","2.65","{""undefined"":""132""}","","","","","","","","","","","","imgNWTK/square.png",""
"5205.0999999940395","","","survey-number","80","4803659","0.0-13.0-0.7","female","19","Australia","48915","25847","imgNWTK/square.png","imgNWTK/triangle.png","imgNWTK/square.png","imgNWTK/triangle.png","noninfo","sub","2.65","{""undefined"":""114""}","","","","","","","","","","","","imgNWTK/square.png",""
"5190.300000011921","","","survey-number","81","4808858","0.0-13.0-0.8","female","19","Australia","48915","25847","imgNWTK/square.png","imgNWTK/triangle.png","imgNWTK/square.png","imgNWTK/triangle.png","noninfo","sub","2.65","{""undefined"":""220""}","","","","","","","","","","","","imgNWTK/square.png",""
"10581.09999999404","","","survey-number","82","4819449","0.0-13.0-0.9","female","19","Australia","48915","25847","imgNWTK/square.png","imgNWTK/triangle.png","imgNWTK/square.png","imgNWTK/triangle.png","noninfo","sub","2.65","{""undefined"":""73""}","","","","","","","","","","","","imgNWTK/square.png",""
"1419","<p><b>Imagine that you clicked on the below button for another 10 trials (this includes <i> both WIN and NO-WIN trials</i>).</p> <img src= 'imgNWTK/triangle.png'></img></br></br> <p><b>Please type the reward (number of points) you would expect to receive on every trial.</br> Click start to begin.</p>","0","html-button-response","83","4820870","0.0-14.0","female","19","Australia","48915","25847","imgNWTK/square.png","imgNWTK/triangle.png","imgNWTK/square.png","imgNWTK/triangle.png","noninfo","sub","2.65","","","","","","","","","","","","","",""
"13726.899999976158","","","survey-number","84","4834607","0.0-15.0-0.0","female","19","Australia","48915","25847","imgNWTK/square.png","imgNWTK/triangle.png","imgNWTK/square.png","imgNWTK/triangle.png","noninfo","sub","2.65","{""undefined"":""84""}","","","","","","","","","","","","imgNWTK/triangle.png",""
"4904.899999976158","","","survey-number","85","4839521","0.0-15.0-0.1","female","19","Australia","48915","25847","imgNWTK/square.png","imgNWTK/triangle.png","imgNWTK/square.png","imgNWTK/triangle.png","noninfo","sub","2.65","{""undefined"":""65""}","","","","","","","","","","","","imgNWTK/triangle.png",""
"2833","","","survey-number","86","4842361","0.0-15.0-0.2","female","19","Australia","48915","25847","imgNWTK/square.png","imgNWTK/triangle.png","imgNWTK/square.png","imgNWTK/triangle.png","noninfo","sub","2.65","{""undefined"":""73""}","","","","","","","","","","","","imgNWTK/triangle.png",""
"2565.5999999940395","","","survey-number","87","4844934","0.0-15.0-0.3","female","19","Australia","48915","25847","imgNWTK/square.png","imgNWTK/triangle.png","imgNWTK/square.png","imgNWTK/triangle.png","noninfo","sub","2.65","{""undefined"":""114""}","","","","","","","","","","","","imgNWTK/triangle.png",""
"6944.800000011921","","","survey-number","88","4851886","0.0-15.0-0.4","female","19","Australia","48915","25847","imgNWTK/square.png","imgNWTK/triangle.png","imgNWTK/square.png","imgNWTK/triangle.png","noninfo","sub","2.65","{""undefined"":""220""}","","","","","","","","","","","","imgNWTK/triangle.png",""
"19577.5","","","survey-number","89","4871471","0.0-15.0-0.5","female","19","Australia","48915","25847","imgNWTK/square.png","imgNWTK/triangle.png","imgNWTK/square.png","imgNWTK/triangle.png","noninfo","sub","2.65","{""undefined"":""123""}","","","","","","","","","","","","imgNWTK/triangle.png",""
"3604.300000011921","","","survey-number","90","4875084","0.0-15.0-0.6","female","19","Australia","48915","25847","imgNWTK/square.png","imgNWTK/triangle.png","imgNWTK/square.png","imgNWTK/triangle.png","noninfo","sub","2.65","{""undefined"":""73""}","","","","","","","","","","","","imgNWTK/triangle.png",""
"11102.5","","","survey-number","91","4886194","0.0-15.0-0.7","female","19","Australia","48915","25847","imgNWTK/square.png","imgNWTK/triangle.png","imgNWTK/square.png","imgNWTK/triangle.png","noninfo","sub","2.65","{""undefined"":""312""}","","","","","","","","","","","","imgNWTK/triangle.png",""
"3914.2999999821186","","","survey-number","92","4890121","0.0-15.0-0.8","female","19","Australia","48915","25847","imgNWTK/square.png","imgNWTK/triangle.png","imgNWTK/square.png","imgNWTK/triangle.png","noninfo","sub","2.65","{""undefined"":""114""}","","","","","","","","","","","","imgNWTK/triangle.png",""
"5223.200000017881","","","survey-number","93","4895351","0.0-15.0-0.9","female","19","Australia","48915","25847","imgNWTK/square.png","imgNWTK/triangle.png","imgNWTK/square.png","imgNWTK/triangle.png","noninfo","sub","2.65","{""undefined"":""110""}","","","","","","","","","","","","imgNWTK/triangle.png",""
"40595.90000000596","","","survey-number","94","4935977","0.0-16.0","female","19","Australia","48915","25847","imgNWTK/square.png","imgNWTK/triangle.png","imgNWTK/square.png","imgNWTK/triangle.png","noninfo","sub","2.65","{""undefined"":""73""}","","","","","","","","","","","","","imgNWTK/triangle.png"
"8577.899999976158","","","survey-number","95","4944564","0.0-17.0","female","19","Australia","48915","25847","imgNWTK/square.png","imgNWTK/triangle.png","imgNWTK/square.png","imgNWTK/triangle.png","noninfo","sub","2.65","{""undefined"":""84""}","","","","","","","","","","","","","imgNWTK/square.png"
"53947","<p style=""text-align:left;"">Great! We are almost at the end of the study... (Please do not close the browser window yet.)</p><p> Your final points balance is 2652, which equals to a bonus payment of &pound;2.65. The payment can be collected from MAT721; please email amy.x.li@unsw.edu.au at least 24 hours prior to collection so that this is ready for you.</p><p style=""text-align:left;"">To view the debriefing form, please click <a href=""./imgNWTK/debrief_3205.pdf"" target=""_blank"">here</a> to download a copy.</p><p style=""text-align:left;"">Then, <b>please click the below button</b> to confirm that you have received your debrief and to complete the study. Upon clicking ""Finish!"", your SONA credit will be automatically assigned.</p>","0","html-button-response","96","4998524","0.0-18.0","female","19","Australia","48915","25847","imgNWTK/square.png","imgNWTK/triangle.png","imgNWTK/square.png","imgNWTK/triangle.png","noninfo","sub","2.65","","","","","","","","","","","","","",""
