"rt","responses","trial_type","trial_index","time_elapsed","internal_node_id","gender","age","language","PID","subStim","optStim","stim1","stim2","infoCond","optimCond","bonus","stimulus","button_pressed","banditTrial","choice","cue","feedback","estimateData","leftOption","rightOption","choiceName","leftInput","rightInput","key_press","postQ","singleEst"
"10427","{""undefined"":""627e7b6d33e1df14160c05ba""}","survey-text","0","10494","0.0-0.0","female","24","USA","42811","NWTKimg/FindOutNow.jpg","NWTKimg/KeepItSecret.jpg","NWTKimg/KeepItSecret.jpg","NWTKimg/FindOutNow.jpg","info","optim","3.06","","","","","","","","","","","","","","",""
"4102","","html-button-response","1","14602","0.0-1.0","female","24","USA","42811","NWTKimg/FindOutNow.jpg","NWTKimg/KeepItSecret.jpg","NWTKimg/KeepItSecret.jpg","NWTKimg/FindOutNow.jpg","info","optim","3.06","<p>Thank you for signing up to participate in our study! <br> During this study, please focus on the experiment and refrain from activities such as:</p>- <b>Switching to other tabs on your browser (this will be monitored via the experiment)</br> - Using your mobile phone/cell phone</br> - Communicating with others</br></br></b><p>This way, you are helping to provide data that is useful for psychological research. We thank you for your cooperation!</p>","0","","","","","","","","","","","","",""
"1245","","html-button-response","2","15851","0.0-2.0","female","24","USA","42811","NWTKimg/FindOutNow.jpg","NWTKimg/KeepItSecret.jpg","NWTKimg/KeepItSecret.jpg","NWTKimg/FindOutNow.jpg","info","optim","3.06","<p>Welcome to the experiment!</p><p>You will now read some instructions about the task. Press the 'Next' button to continue. </p>","0","","","","","","","","","","","","",""
"19559","","html-button-response","3","35414","0.0-3.0-0.0","female","24","USA","42811","NWTKimg/FindOutNow.jpg","NWTKimg/KeepItSecret.jpg","NWTKimg/KeepItSecret.jpg","NWTKimg/FindOutNow.jpg","info","optim","3.06","<p> On each trial throughout the experiment you will choose between the options </br><b> Find Out Now </b> and <b> Keep It Secret </b>, as shown below.</p><div><div style= 'float: left; width: 300px; margin: 10px 10px;'><img src= 'NWTKimg/KeepItSecret.jpg'></img></div><div style= 'float: right; width: 300px; margin: 10px 10px;'><img src= 'NWTKimg/FindOutNow.jpg'></img></div></div><br/><br/><br/><br/><br/><br/><br/><br/><br/><br/><br/><p>Each option results in winning points or receiving 0 points.</br>There is a 50% chance of either winning or receiving 0 points.</p><p>You won't receive the outcome until after a <b> 20 second delay</b>. However, selecting the Find Out Now option will allow you to find out about the outcome early, whereas the Keep It Secret option will not. </p>","0","","","","","","","","","","","","",""
"26445","","html-button-response","4","61862","0.0-3.0-1.0","female","24","USA","42811","NWTKimg/FindOutNow.jpg","NWTKimg/KeepItSecret.jpg","NWTKimg/KeepItSecret.jpg","NWTKimg/FindOutNow.jpg","info","optim","3.06","<img src= 'cues/Experiment6.png'></img><p>As seen above, when choosing the <b>'Find Out Now'</b> option, you will receive either a happy face or sad face.</br>The happy face means you will win points after the delay, whereas the sad face means you will receive 0 points.</br></p><p> When choosing the <b> 'Keep it Secret' </b> option you will receive a confused face.</br> This face appears regardless of whether you are going to win points or not. </p>In short, choosing 'Find Out Now' allows you to find out the outcome before you experience it (after the delay).</br></br>","0","","","","","","","","","","","","",""
"16414","","html-button-response","5","78281","0.0-3.0-2.0","female","24","USA","42811","NWTKimg/FindOutNow.jpg","NWTKimg/KeepItSecret.jpg","NWTKimg/KeepItSecret.jpg","NWTKimg/FindOutNow.jpg","info","optim","3.06","<img src= 'cues/winTrials_info.png' width = '1200'></img><p>To reiterate, 50% of the outcomes of each option will be WIN TRIALS, and the other 50% will be NO-WIN TRIALS.","0","","","","","","","","","","","","",""
"4374","","html-button-response","6","82660","0.0-3.0-3.0","female","24","USA","42811","NWTKimg/FindOutNow.jpg","NWTKimg/KeepItSecret.jpg","NWTKimg/KeepItSecret.jpg","NWTKimg/FindOutNow.jpg","info","optim","3.06","<p> There will be <b>four blocks</b> in the experiment.</br>You will be given a short 15 second break between each block.</p><p><b>The points and the options will remain the same between the blocks.</b></p>The blocks are there just to give you a small break.</br></br><p>The points you earn in the task are also equal to <b> actual money</b>.</br> <b>1000 points is equal to &pound;1.</b></p><p>This is the rate you will be paid at the experiment's end.","0","","","","","","","","","","","","",""
"27996","{""Q0"":""20 Seconds"",""Q1"":""True"",""Q2"":""Equally"",""Q3"":""True""}","survey-multi-choice","7","110666","0.0-3.0-4.0","female","24","USA","42811","NWTKimg/FindOutNow.jpg","NWTKimg/KeepItSecret.jpg","NWTKimg/KeepItSecret.jpg","NWTKimg/FindOutNow.jpg","info","optim","3.06","","","","","","","","","","","","","","",""
"3346","","html-button-response","8","114016","0.0-4.0","female","24","USA","42811","NWTKimg/FindOutNow.jpg","NWTKimg/KeepItSecret.jpg","NWTKimg/KeepItSecret.jpg","NWTKimg/FindOutNow.jpg","info","optim","3.06","<p> Well done, all your answers were correct! <br> The experiment is about to start now. <br/> Click start to continue, or email your researcher <b>(amy.x.li@unsw.edu.au)</b> if you have any questions before starting.","0","","","","","","","","","","","","",""
"1522","","bandit-task-exp6","9","147107","0.0-5.0-0.0","female","24","USA","42811","NWTKimg/FindOutNow.jpg","NWTKimg/KeepItSecret.jpg","NWTKimg/KeepItSecret.jpg","NWTKimg/FindOutNow.jpg","info","optim","3.06","","","1","1","1","80","null","NWTKimg/KeepItSecret.jpg","NWTKimg/FindOutNow.jpg","NWTKimg/KeepItSecret.jpg","NaN","NaN","","",""
"3012","","bandit-task-exp6","10","173109","0.0-5.0-0.1","female","24","USA","42811","NWTKimg/FindOutNow.jpg","NWTKimg/KeepItSecret.jpg","NWTKimg/KeepItSecret.jpg","NWTKimg/FindOutNow.jpg","info","optim","3.06","","","2","2","1","0","null","NWTKimg/KeepItSecret.jpg","NWTKimg/FindOutNow.jpg","NWTKimg/FindOutNow.jpg","NaN","NaN","","",""
"2893","","bandit-task-exp6","11","202141","0.0-5.0-0.2","female","24","USA","42811","NWTKimg/FindOutNow.jpg","NWTKimg/KeepItSecret.jpg","NWTKimg/KeepItSecret.jpg","NWTKimg/FindOutNow.jpg","info","optim","3.06","","","3","2","1","0","null","NWTKimg/FindOutNow.jpg","NWTKimg/KeepItSecret.jpg","NWTKimg/FindOutNow.jpg","NaN","NaN","","",""
"2621","","bandit-task-exp6","12","228698","0.0-5.0-0.3","female","24","USA","42811","NWTKimg/FindOutNow.jpg","NWTKimg/KeepItSecret.jpg","NWTKimg/KeepItSecret.jpg","NWTKimg/FindOutNow.jpg","info","optim","3.06","","","4","1","2","0","null","NWTKimg/FindOutNow.jpg","NWTKimg/KeepItSecret.jpg","NWTKimg/KeepItSecret.jpg","NaN","NaN","","",""
"955","","bandit-task-exp6","13","582500","0.0-5.0-0.4","female","24","USA","42811","NWTKimg/FindOutNow.jpg","NWTKimg/KeepItSecret.jpg","NWTKimg/KeepItSecret.jpg","NWTKimg/FindOutNow.jpg","info","optim","3.06","","","5","2","2","111","null","NWTKimg/FindOutNow.jpg","NWTKimg/KeepItSecret.jpg","NWTKimg/FindOutNow.jpg","NaN","NaN","","",""
"690","","bandit-task-exp6","14","605278","0.0-5.0-0.5","female","24","USA","42811","NWTKimg/FindOutNow.jpg","NWTKimg/KeepItSecret.jpg","NWTKimg/KeepItSecret.jpg","NWTKimg/FindOutNow.jpg","info","optim","3.06","","","6","1","1","77","null","NWTKimg/FindOutNow.jpg","NWTKimg/KeepItSecret.jpg","NWTKimg/KeepItSecret.jpg","NaN","NaN","","",""
"433","","bandit-task-exp6","15","628827","0.0-5.0-0.6","female","24","USA","42811","NWTKimg/FindOutNow.jpg","NWTKimg/KeepItSecret.jpg","NWTKimg/KeepItSecret.jpg","NWTKimg/FindOutNow.jpg","info","optim","3.06","","","7","2","1","0","null","NWTKimg/KeepItSecret.jpg","NWTKimg/FindOutNow.jpg","NWTKimg/FindOutNow.jpg","NaN","NaN","","",""
"1029","","bandit-task-exp6","16","651542","0.0-5.0-0.7","female","24","USA","42811","NWTKimg/FindOutNow.jpg","NWTKimg/KeepItSecret.jpg","NWTKimg/KeepItSecret.jpg","NWTKimg/FindOutNow.jpg","info","optim","3.06","","","8","1","2","0","null","NWTKimg/KeepItSecret.jpg","NWTKimg/FindOutNow.jpg","NWTKimg/KeepItSecret.jpg","NaN","NaN","","",""
"602","","bandit-task-exp6","17","910694","0.0-5.0-0.8","female","24","USA","42811","NWTKimg/FindOutNow.jpg","NWTKimg/KeepItSecret.jpg","NWTKimg/KeepItSecret.jpg","NWTKimg/FindOutNow.jpg","info","optim","3.06","","","9","1","2","0","null","NWTKimg/FindOutNow.jpg","NWTKimg/KeepItSecret.jpg","NWTKimg/KeepItSecret.jpg","NaN","NaN","","",""
"807","","bandit-task-exp6","18","934381","0.0-5.0-0.9","female","24","USA","42811","NWTKimg/FindOutNow.jpg","NWTKimg/KeepItSecret.jpg","NWTKimg/KeepItSecret.jpg","NWTKimg/FindOutNow.jpg","info","optim","3.06","","","10","2","1","0","null","NWTKimg/KeepItSecret.jpg","NWTKimg/FindOutNow.jpg","NWTKimg/FindOutNow.jpg","NaN","NaN","","",""
"12461","","bandit-task-exp6","19","968833","0.0-5.0-0.10","female","24","USA","42811","NWTKimg/FindOutNow.jpg","NWTKimg/KeepItSecret.jpg","NWTKimg/KeepItSecret.jpg","NWTKimg/FindOutNow.jpg","info","optim","3.06","","","11","1","2","0","null","NWTKimg/FindOutNow.jpg","NWTKimg/KeepItSecret.jpg","NWTKimg/KeepItSecret.jpg","NaN","NaN","","",""
"691","","bandit-task-exp6","20","996332","0.0-5.0-0.11","female","24","USA","42811","NWTKimg/FindOutNow.jpg","NWTKimg/KeepItSecret.jpg","NWTKimg/KeepItSecret.jpg","NWTKimg/FindOutNow.jpg","info","optim","3.06","","","12","2","2","124","null","NWTKimg/FindOutNow.jpg","NWTKimg/KeepItSecret.jpg","NWTKimg/FindOutNow.jpg","NaN","NaN","","",""
"1379","","bandit-task-exp6","21","1032733","0.0-5.0-0.12","female","24","USA","42811","NWTKimg/FindOutNow.jpg","NWTKimg/KeepItSecret.jpg","NWTKimg/KeepItSecret.jpg","NWTKimg/FindOutNow.jpg","info","optim","3.06","","","13","2","1","0","null","NWTKimg/KeepItSecret.jpg","NWTKimg/FindOutNow.jpg","NWTKimg/FindOutNow.jpg","NaN","NaN","","",""
"596","","bandit-task-exp6","22","1055366","0.0-5.0-0.13","female","24","USA","42811","NWTKimg/FindOutNow.jpg","NWTKimg/KeepItSecret.jpg","NWTKimg/KeepItSecret.jpg","NWTKimg/FindOutNow.jpg","info","optim","3.06","","","14","1","2","0","null","NWTKimg/KeepItSecret.jpg","NWTKimg/FindOutNow.jpg","NWTKimg/KeepItSecret.jpg","NaN","NaN","","",""
"1549","","bandit-task-exp6","23","1079073","0.0-5.0-0.14","female","24","USA","42811","NWTKimg/FindOutNow.jpg","NWTKimg/KeepItSecret.jpg","NWTKimg/KeepItSecret.jpg","NWTKimg/FindOutNow.jpg","info","optim","3.06","","","15","2","2","124","null","NWTKimg/KeepItSecret.jpg","NWTKimg/FindOutNow.jpg","NWTKimg/FindOutNow.jpg","NaN","NaN","","",""
"null","","html-keyboard-response","24","1094079","0.0-6.0","female","24","USA","42811","NWTKimg/FindOutNow.jpg","NWTKimg/KeepItSecret.jpg","NWTKimg/KeepItSecret.jpg","NWTKimg/FindOutNow.jpg","info","optim","3.06","<p><b> Congratulations, you have finished this block. </b> </p><p>Please take a short break before moving onto the next block.</p><p>The next block will start after a 15 second break.</p><b>Remember, the point rewards are the same between blocks","","","","","","","","","","","","null","",""
"1538","","bandit-task-exp6","25","1119731","0.0-7.0-0.0","female","24","USA","42811","NWTKimg/FindOutNow.jpg","NWTKimg/KeepItSecret.jpg","NWTKimg/KeepItSecret.jpg","NWTKimg/FindOutNow.jpg","info","optim","3.06","","","16","1","1","77","null","NWTKimg/KeepItSecret.jpg","NWTKimg/FindOutNow.jpg","NWTKimg/KeepItSecret.jpg","NaN","NaN","","",""
"1066","","bandit-task-exp6","26","1147508","0.0-7.0-0.1","female","24","USA","42811","NWTKimg/FindOutNow.jpg","NWTKimg/KeepItSecret.jpg","NWTKimg/KeepItSecret.jpg","NWTKimg/FindOutNow.jpg","info","optim","3.06","","","17","1","1","77","null","NWTKimg/FindOutNow.jpg","NWTKimg/KeepItSecret.jpg","NWTKimg/KeepItSecret.jpg","NaN","NaN","","",""
"42441","","bandit-task-exp6","27","1377173","0.0-7.0-0.2","female","24","USA","42811","NWTKimg/FindOutNow.jpg","NWTKimg/KeepItSecret.jpg","NWTKimg/KeepItSecret.jpg","NWTKimg/FindOutNow.jpg","info","optim","3.06","","","18","2","1","0","null","NWTKimg/FindOutNow.jpg","NWTKimg/KeepItSecret.jpg","NWTKimg/FindOutNow.jpg","NaN","NaN","","",""
"523","","bandit-task-exp6","28","1411259","0.0-7.0-0.3","female","24","USA","42811","NWTKimg/FindOutNow.jpg","NWTKimg/KeepItSecret.jpg","NWTKimg/KeepItSecret.jpg","NWTKimg/FindOutNow.jpg","info","optim","3.06","","","19","2","2","117","null","NWTKimg/KeepItSecret.jpg","NWTKimg/FindOutNow.jpg","NWTKimg/FindOutNow.jpg","NaN","NaN","","",""
"1049","","bandit-task-exp6","29","1438465","0.0-7.0-0.4","female","24","USA","42811","NWTKimg/FindOutNow.jpg","NWTKimg/KeepItSecret.jpg","NWTKimg/KeepItSecret.jpg","NWTKimg/FindOutNow.jpg","info","optim","3.06","","","20","2","1","0","null","NWTKimg/FindOutNow.jpg","NWTKimg/KeepItSecret.jpg","NWTKimg/FindOutNow.jpg","NaN","NaN","","",""
"894","","bandit-task-exp6","30","1821390","0.0-7.0-0.5","female","24","USA","42811","NWTKimg/FindOutNow.jpg","NWTKimg/KeepItSecret.jpg","NWTKimg/KeepItSecret.jpg","NWTKimg/FindOutNow.jpg","info","optim","3.06","","","21","2","1","0","null","NWTKimg/FindOutNow.jpg","NWTKimg/KeepItSecret.jpg","NWTKimg/FindOutNow.jpg","NaN","NaN","","",""
"3832","","bandit-task-exp6","31","1849123","0.0-7.0-0.6","female","24","USA","42811","NWTKimg/FindOutNow.jpg","NWTKimg/KeepItSecret.jpg","NWTKimg/KeepItSecret.jpg","NWTKimg/FindOutNow.jpg","info","optim","3.06","","","22","2","1","0","null","NWTKimg/FindOutNow.jpg","NWTKimg/KeepItSecret.jpg","NWTKimg/FindOutNow.jpg","NaN","NaN","","",""
"1084","","bandit-task-exp6","32","1907121","0.0-7.0-0.7","female","24","USA","42811","NWTKimg/FindOutNow.jpg","NWTKimg/KeepItSecret.jpg","NWTKimg/KeepItSecret.jpg","NWTKimg/FindOutNow.jpg","info","optim","3.06","","","23","2","2","118","null","NWTKimg/KeepItSecret.jpg","NWTKimg/FindOutNow.jpg","NWTKimg/FindOutNow.jpg","NaN","NaN","","",""
"13087","","bandit-task-exp6","33","1954565","0.0-7.0-0.8","female","24","USA","42811","NWTKimg/FindOutNow.jpg","NWTKimg/KeepItSecret.jpg","NWTKimg/KeepItSecret.jpg","NWTKimg/FindOutNow.jpg","info","optim","3.06","","","24","2","2","116","null","NWTKimg/FindOutNow.jpg","NWTKimg/KeepItSecret.jpg","NWTKimg/FindOutNow.jpg","NaN","NaN","","",""
"1042","","bandit-task-exp6","34","1978795","0.0-7.0-0.9","female","24","USA","42811","NWTKimg/FindOutNow.jpg","NWTKimg/KeepItSecret.jpg","NWTKimg/KeepItSecret.jpg","NWTKimg/FindOutNow.jpg","info","optim","3.06","","","25","2","1","0","null","NWTKimg/FindOutNow.jpg","NWTKimg/KeepItSecret.jpg","NWTKimg/FindOutNow.jpg","NaN","NaN","","",""
"12607","","bandit-task-exp6","35","2014101","0.0-7.0-0.10","female","24","USA","42811","NWTKimg/FindOutNow.jpg","NWTKimg/KeepItSecret.jpg","NWTKimg/KeepItSecret.jpg","NWTKimg/FindOutNow.jpg","info","optim","3.06","","","26","2","1","0","null","NWTKimg/KeepItSecret.jpg","NWTKimg/FindOutNow.jpg","NWTKimg/FindOutNow.jpg","NaN","NaN","","",""
"19821","","bandit-task-exp6","36","2056766","0.0-7.0-0.11","female","24","USA","42811","NWTKimg/FindOutNow.jpg","NWTKimg/KeepItSecret.jpg","NWTKimg/KeepItSecret.jpg","NWTKimg/FindOutNow.jpg","info","optim","3.06","","","27","2","1","0","null","NWTKimg/FindOutNow.jpg","NWTKimg/KeepItSecret.jpg","NWTKimg/FindOutNow.jpg","NaN","NaN","","",""
"1091","","bandit-task-exp6","37","2081601","0.0-7.0-0.12","female","24","USA","42811","NWTKimg/FindOutNow.jpg","NWTKimg/KeepItSecret.jpg","NWTKimg/KeepItSecret.jpg","NWTKimg/FindOutNow.jpg","info","optim","3.06","","","28","1","1","73","null","NWTKimg/FindOutNow.jpg","NWTKimg/KeepItSecret.jpg","NWTKimg/KeepItSecret.jpg","NaN","NaN","","",""
"1190","","bandit-task-exp6","38","2104875","0.0-7.0-0.13","female","24","USA","42811","NWTKimg/FindOutNow.jpg","NWTKimg/KeepItSecret.jpg","NWTKimg/KeepItSecret.jpg","NWTKimg/FindOutNow.jpg","info","optim","3.06","","","29","1","1","71","null","NWTKimg/FindOutNow.jpg","NWTKimg/KeepItSecret.jpg","NWTKimg/KeepItSecret.jpg","NaN","NaN","","",""
"1022","","bandit-task-exp6","39","2128257","0.0-7.0-0.14","female","24","USA","42811","NWTKimg/FindOutNow.jpg","NWTKimg/KeepItSecret.jpg","NWTKimg/KeepItSecret.jpg","NWTKimg/FindOutNow.jpg","info","optim","3.06","","","30","2","2","122","null","NWTKimg/KeepItSecret.jpg","NWTKimg/FindOutNow.jpg","NWTKimg/FindOutNow.jpg","NaN","NaN","","",""
"null","","html-keyboard-response","40","2143265","0.0-8.0","female","24","USA","42811","NWTKimg/FindOutNow.jpg","NWTKimg/KeepItSecret.jpg","NWTKimg/KeepItSecret.jpg","NWTKimg/FindOutNow.jpg","info","optim","3.06","<p><b> Congratulations, you have finished this block. </b> </p><p>Please take a short break before moving onto the next block.</p><p>The next block will start after a 15 second break.</p><b>Remember, the point rewards are the same between blocks","","","","","","","","","","","","null","",""
"2410","","bandit-task-exp6","41","2169311","0.0-9.0-0.0","female","24","USA","42811","NWTKimg/FindOutNow.jpg","NWTKimg/KeepItSecret.jpg","NWTKimg/KeepItSecret.jpg","NWTKimg/FindOutNow.jpg","info","optim","3.06","","","31","2","2","124","null","NWTKimg/FindOutNow.jpg","NWTKimg/KeepItSecret.jpg","NWTKimg/FindOutNow.jpg","NaN","NaN","","",""
"6276","","bandit-task-exp6","42","2199067","0.0-9.0-0.1","female","24","USA","42811","NWTKimg/FindOutNow.jpg","NWTKimg/KeepItSecret.jpg","NWTKimg/KeepItSecret.jpg","NWTKimg/FindOutNow.jpg","info","optim","3.06","","","32","2","2","118","null","NWTKimg/KeepItSecret.jpg","NWTKimg/FindOutNow.jpg","NWTKimg/FindOutNow.jpg","NaN","NaN","","",""
"1671","","bandit-task-exp6","43","2224216","0.0-9.0-0.2","female","24","USA","42811","NWTKimg/FindOutNow.jpg","NWTKimg/KeepItSecret.jpg","NWTKimg/KeepItSecret.jpg","NWTKimg/FindOutNow.jpg","info","optim","3.06","","","33","2","2","121","null","NWTKimg/FindOutNow.jpg","NWTKimg/KeepItSecret.jpg","NWTKimg/FindOutNow.jpg","NaN","NaN","","",""
"1118","","bandit-task-exp6","44","2253410","0.0-9.0-0.3","female","24","USA","42811","NWTKimg/FindOutNow.jpg","NWTKimg/KeepItSecret.jpg","NWTKimg/KeepItSecret.jpg","NWTKimg/FindOutNow.jpg","info","optim","3.06","","","34","2","1","0","null","NWTKimg/KeepItSecret.jpg","NWTKimg/FindOutNow.jpg","NWTKimg/FindOutNow.jpg","NaN","NaN","","",""
"743","","bandit-task-exp6","45","2277878","0.0-9.0-0.4","female","24","USA","42811","NWTKimg/FindOutNow.jpg","NWTKimg/KeepItSecret.jpg","NWTKimg/KeepItSecret.jpg","NWTKimg/FindOutNow.jpg","info","optim","3.06","","","35","1","1","82","null","NWTKimg/FindOutNow.jpg","NWTKimg/KeepItSecret.jpg","NWTKimg/KeepItSecret.jpg","NaN","NaN","","",""
"549","","bandit-task-exp6","46","2304227","0.0-9.0-0.5","female","24","USA","42811","NWTKimg/FindOutNow.jpg","NWTKimg/KeepItSecret.jpg","NWTKimg/KeepItSecret.jpg","NWTKimg/FindOutNow.jpg","info","optim","3.06","","","36","2","1","0","null","NWTKimg/KeepItSecret.jpg","NWTKimg/FindOutNow.jpg","NWTKimg/FindOutNow.jpg","NaN","NaN","","",""
"6267","","bandit-task-exp6","47","2332813","0.0-9.0-0.6","female","24","USA","42811","NWTKimg/FindOutNow.jpg","NWTKimg/KeepItSecret.jpg","NWTKimg/KeepItSecret.jpg","NWTKimg/FindOutNow.jpg","info","optim","3.06","","","37","2","2","118","null","NWTKimg/FindOutNow.jpg","NWTKimg/KeepItSecret.jpg","NWTKimg/FindOutNow.jpg","NaN","NaN","","",""
"1423","","bandit-task-exp6","48","2357322","0.0-9.0-0.7","female","24","USA","42811","NWTKimg/FindOutNow.jpg","NWTKimg/KeepItSecret.jpg","NWTKimg/KeepItSecret.jpg","NWTKimg/FindOutNow.jpg","info","optim","3.06","","","38","1","2","0","null","NWTKimg/KeepItSecret.jpg","NWTKimg/FindOutNow.jpg","NWTKimg/KeepItSecret.jpg","NaN","NaN","","",""
"4705","","bandit-task-exp6","49","2384886","0.0-9.0-0.8","female","24","USA","42811","NWTKimg/FindOutNow.jpg","NWTKimg/KeepItSecret.jpg","NWTKimg/KeepItSecret.jpg","NWTKimg/FindOutNow.jpg","info","optim","3.06","","","39","2","1","0","null","NWTKimg/KeepItSecret.jpg","NWTKimg/FindOutNow.jpg","NWTKimg/FindOutNow.jpg","NaN","NaN","","",""
"4491","","bandit-task-exp6","50","2414967","0.0-9.0-0.9","female","24","USA","42811","NWTKimg/FindOutNow.jpg","NWTKimg/KeepItSecret.jpg","NWTKimg/KeepItSecret.jpg","NWTKimg/FindOutNow.jpg","info","optim","3.06","","","40","2","2","110","null","NWTKimg/KeepItSecret.jpg","NWTKimg/FindOutNow.jpg","NWTKimg/FindOutNow.jpg","NaN","NaN","","",""
"952","","bandit-task-exp6","51","2438823","0.0-9.0-0.10","female","24","USA","42811","NWTKimg/FindOutNow.jpg","NWTKimg/KeepItSecret.jpg","NWTKimg/KeepItSecret.jpg","NWTKimg/FindOutNow.jpg","info","optim","3.06","","","41","2","2","110","null","NWTKimg/KeepItSecret.jpg","NWTKimg/FindOutNow.jpg","NWTKimg/FindOutNow.jpg","NaN","NaN","","",""
"1771","","bandit-task-exp6","52","2466346","0.0-9.0-0.11","female","24","USA","42811","NWTKimg/FindOutNow.jpg","NWTKimg/KeepItSecret.jpg","NWTKimg/KeepItSecret.jpg","NWTKimg/FindOutNow.jpg","info","optim","3.06","","","42","2","2","120","null","NWTKimg/FindOutNow.jpg","NWTKimg/KeepItSecret.jpg","NWTKimg/FindOutNow.jpg","NaN","NaN","","",""
"1611","","bandit-task-exp6","53","2493503","0.0-9.0-0.12","female","24","USA","42811","NWTKimg/FindOutNow.jpg","NWTKimg/KeepItSecret.jpg","NWTKimg/KeepItSecret.jpg","NWTKimg/FindOutNow.jpg","info","optim","3.06","","","43","2","2","123","null","NWTKimg/KeepItSecret.jpg","NWTKimg/FindOutNow.jpg","NWTKimg/FindOutNow.jpg","NaN","NaN","","",""
"5150","","bandit-task-exp6","54","2523370","0.0-9.0-0.13","female","24","USA","42811","NWTKimg/FindOutNow.jpg","NWTKimg/KeepItSecret.jpg","NWTKimg/KeepItSecret.jpg","NWTKimg/FindOutNow.jpg","info","optim","3.06","","","44","2","1","0","null","NWTKimg/FindOutNow.jpg","NWTKimg/KeepItSecret.jpg","NWTKimg/FindOutNow.jpg","NaN","NaN","","",""
"1573","","bandit-task-exp6","55","2549047","0.0-9.0-0.14","female","24","USA","42811","NWTKimg/FindOutNow.jpg","NWTKimg/KeepItSecret.jpg","NWTKimg/KeepItSecret.jpg","NWTKimg/FindOutNow.jpg","info","optim","3.06","","","45","2","2","121","null","NWTKimg/FindOutNow.jpg","NWTKimg/KeepItSecret.jpg","NWTKimg/FindOutNow.jpg","NaN","NaN","","",""
"null","","html-keyboard-response","56","2564057","0.0-10.0","female","24","USA","42811","NWTKimg/FindOutNow.jpg","NWTKimg/KeepItSecret.jpg","NWTKimg/KeepItSecret.jpg","NWTKimg/FindOutNow.jpg","info","optim","3.06","<p><b> Congratulations, you have finished this block. </b> </p><p>Please take a short break before moving onto the next block.</p><p>The next block will start after a 15 second break.</p><b>Remember, the point rewards are the same between blocks","","","","","","","","","","","","null","",""
"34430","","bandit-task-exp6","57","2632013","0.0-11.0-0.0","female","24","USA","42811","NWTKimg/FindOutNow.jpg","NWTKimg/KeepItSecret.jpg","NWTKimg/KeepItSecret.jpg","NWTKimg/FindOutNow.jpg","info","optim","3.06","","","46","2","2","123","null","NWTKimg/FindOutNow.jpg","NWTKimg/KeepItSecret.jpg","NWTKimg/FindOutNow.jpg","100","100","","",""
"10992","","bandit-task-exp6","58","2666509","0.0-11.0-0.1","female","24","USA","42811","NWTKimg/FindOutNow.jpg","NWTKimg/KeepItSecret.jpg","NWTKimg/KeepItSecret.jpg","NWTKimg/FindOutNow.jpg","info","optim","3.06","","","47","1","2","0","null","NWTKimg/KeepItSecret.jpg","NWTKimg/FindOutNow.jpg","NWTKimg/KeepItSecret.jpg","100","123","","",""
"8587","","bandit-task-exp6","59","2696803","0.0-11.0-0.2","female","24","USA","42811","NWTKimg/FindOutNow.jpg","NWTKimg/KeepItSecret.jpg","NWTKimg/KeepItSecret.jpg","NWTKimg/FindOutNow.jpg","info","optim","3.06","","","48","1","1","71","null","NWTKimg/KeepItSecret.jpg","NWTKimg/FindOutNow.jpg","NWTKimg/KeepItSecret.jpg","100","123","","",""
"8445","","bandit-task-exp6","60","2727834","0.0-11.0-0.3","female","24","USA","42811","NWTKimg/FindOutNow.jpg","NWTKimg/KeepItSecret.jpg","NWTKimg/KeepItSecret.jpg","NWTKimg/FindOutNow.jpg","info","optim","3.06","","","49","2","2","113","null","NWTKimg/KeepItSecret.jpg","NWTKimg/FindOutNow.jpg","NWTKimg/FindOutNow.jpg","70","123","","",""
"8537","","bandit-task-exp6","61","2760314","0.0-11.0-0.4","female","24","USA","42811","NWTKimg/FindOutNow.jpg","NWTKimg/KeepItSecret.jpg","NWTKimg/KeepItSecret.jpg","NWTKimg/FindOutNow.jpg","info","optim","3.06","","","50","2","1","0","null","NWTKimg/FindOutNow.jpg","NWTKimg/KeepItSecret.jpg","NWTKimg/FindOutNow.jpg","123","80","","",""
"6093","","bandit-task-exp6","62","2793784","0.0-11.0-0.5","female","24","USA","42811","NWTKimg/FindOutNow.jpg","NWTKimg/KeepItSecret.jpg","NWTKimg/KeepItSecret.jpg","NWTKimg/FindOutNow.jpg","info","optim","3.06","","","51","2","1","0","null","NWTKimg/KeepItSecret.jpg","NWTKimg/FindOutNow.jpg","NWTKimg/FindOutNow.jpg","80","123","","",""
"5717","","bandit-task-exp6","63","2823221","0.0-11.0-0.6","female","24","USA","42811","NWTKimg/FindOutNow.jpg","NWTKimg/KeepItSecret.jpg","NWTKimg/KeepItSecret.jpg","NWTKimg/FindOutNow.jpg","info","optim","3.06","","","52","2","2","116","null","NWTKimg/FindOutNow.jpg","NWTKimg/KeepItSecret.jpg","NWTKimg/FindOutNow.jpg","123","70","","",""
"7306","","bandit-task-exp6","64","2862420","0.0-11.0-0.7","female","24","USA","42811","NWTKimg/FindOutNow.jpg","NWTKimg/KeepItSecret.jpg","NWTKimg/KeepItSecret.jpg","NWTKimg/FindOutNow.jpg","info","optim","3.06","","","53","1","1","81","null","NWTKimg/KeepItSecret.jpg","NWTKimg/FindOutNow.jpg","NWTKimg/KeepItSecret.jpg","123","86","","",""
"11529","","bandit-task-exp6","65","2897263","0.0-11.0-0.8","female","24","USA","42811","NWTKimg/FindOutNow.jpg","NWTKimg/KeepItSecret.jpg","NWTKimg/KeepItSecret.jpg","NWTKimg/FindOutNow.jpg","info","optim","3.06","","","54","2","1","0","null","NWTKimg/KeepItSecret.jpg","NWTKimg/FindOutNow.jpg","NWTKimg/FindOutNow.jpg","80","100","","",""
"9265","","bandit-task-exp6","66","2936734","0.0-11.0-0.9","female","24","USA","42811","NWTKimg/FindOutNow.jpg","NWTKimg/KeepItSecret.jpg","NWTKimg/KeepItSecret.jpg","NWTKimg/FindOutNow.jpg","info","optim","3.06","","","55","2","1","0","null","NWTKimg/KeepItSecret.jpg","NWTKimg/FindOutNow.jpg","NWTKimg/FindOutNow.jpg","100","100","","",""
"6238","","bandit-task-exp6","67","2969278","0.0-11.0-0.10","female","24","USA","42811","NWTKimg/FindOutNow.jpg","NWTKimg/KeepItSecret.jpg","NWTKimg/KeepItSecret.jpg","NWTKimg/FindOutNow.jpg","info","optim","3.06","","","56","2","1","0","null","NWTKimg/KeepItSecret.jpg","NWTKimg/FindOutNow.jpg","NWTKimg/FindOutNow.jpg","100","123","","",""
"6128","","bandit-task-exp6","68","3008000","0.0-11.0-0.11","female","24","USA","42811","NWTKimg/FindOutNow.jpg","NWTKimg/KeepItSecret.jpg","NWTKimg/KeepItSecret.jpg","NWTKimg/FindOutNow.jpg","info","optim","3.06","","","57","2","2","125","null","NWTKimg/FindOutNow.jpg","NWTKimg/KeepItSecret.jpg","NWTKimg/FindOutNow.jpg","123","100","","",""
"34771","","bandit-task-exp6","69","3065848","0.0-11.0-0.12","female","24","USA","42811","NWTKimg/FindOutNow.jpg","NWTKimg/KeepItSecret.jpg","NWTKimg/KeepItSecret.jpg","NWTKimg/FindOutNow.jpg","info","optim","3.06","","","58","2","1","0","null","NWTKimg/FindOutNow.jpg","NWTKimg/KeepItSecret.jpg","NWTKimg/FindOutNow.jpg","111","80","","",""
"12286","","bandit-task-exp6","70","3101244","0.0-11.0-0.13","female","24","USA","42811","NWTKimg/FindOutNow.jpg","NWTKimg/KeepItSecret.jpg","NWTKimg/KeepItSecret.jpg","NWTKimg/FindOutNow.jpg","info","optim","3.06","","","59","2","1","0","null","NWTKimg/KeepItSecret.jpg","NWTKimg/FindOutNow.jpg","NWTKimg/FindOutNow.jpg","80","111","","",""
"8168","","bandit-task-exp6","71","3147028","0.0-11.0-0.14","female","24","USA","42811","NWTKimg/FindOutNow.jpg","NWTKimg/KeepItSecret.jpg","NWTKimg/KeepItSecret.jpg","NWTKimg/FindOutNow.jpg","info","optim","3.06","","","60","1","2","0","null","NWTKimg/KeepItSecret.jpg","NWTKimg/FindOutNow.jpg","NWTKimg/KeepItSecret.jpg","90","100","","",""
"2179","","html-button-response","72","3149216","0.0-12.0","female","24","USA","42811","NWTKimg/FindOutNow.jpg","NWTKimg/KeepItSecret.jpg","NWTKimg/KeepItSecret.jpg","NWTKimg/FindOutNow.jpg","info","optim","3.06","<p> Congratulations, you have finished the main part of the experiment. </p><p>Before you finish, we have a few short questions about the options and outcomes you saw in the task.</p>","0","","","","","","","","","","","","",""
"13518","","html-button-response","73","3162738","0.0-13.0","female","24","USA","42811","NWTKimg/FindOutNow.jpg","NWTKimg/KeepItSecret.jpg","NWTKimg/KeepItSecret.jpg","NWTKimg/FindOutNow.jpg","info","optim","3.06","<p><b>Now, imagine that you clicked on the below button for another 10 trials (this includes <i> BOTH WIN and NO-WIN trials</i>).</p> <img src= 'NWTKimg/FindOutNow.jpg'></img></br></br> <p><b>Please type the reward (number of points) you would expect to receive on every trial.</br> Click start to begin.</p>","0","","","","","","","","","","","","",""
"7492.199999988079","{""undefined"":""120""}","survey-number","74","3170243","0.0-14.0-0.0","female","24","USA","42811","NWTKimg/FindOutNow.jpg","NWTKimg/KeepItSecret.jpg","NWTKimg/KeepItSecret.jpg","NWTKimg/FindOutNow.jpg","info","optim","3.06","","","","","","","","","","","","","","NWTKimg/FindOutNow.jpg",""
"3779.5","{""undefined"":""120""}","survey-number","75","3174043","0.0-14.0-0.1","female","24","USA","42811","NWTKimg/FindOutNow.jpg","NWTKimg/KeepItSecret.jpg","NWTKimg/KeepItSecret.jpg","NWTKimg/FindOutNow.jpg","info","optim","3.06","","","","","","","","","","","","","","NWTKimg/FindOutNow.jpg",""
"1768.300000011921","{""undefined"":""0""}","survey-number","76","3175820","0.0-14.0-0.2","female","24","USA","42811","NWTKimg/FindOutNow.jpg","NWTKimg/KeepItSecret.jpg","NWTKimg/KeepItSecret.jpg","NWTKimg/FindOutNow.jpg","info","optim","3.06","","","","","","","","","","","","","","NWTKimg/FindOutNow.jpg",""
"1240.4000000059605","{""undefined"":""0""}","survey-number","77","3177073","0.0-14.0-0.3","female","24","USA","42811","NWTKimg/FindOutNow.jpg","NWTKimg/KeepItSecret.jpg","NWTKimg/KeepItSecret.jpg","NWTKimg/FindOutNow.jpg","info","optim","3.06","","","","","","","","","","","","","","NWTKimg/FindOutNow.jpg",""
"1515.2000000178814","{""undefined"":""0""}","survey-number","78","3178595","0.0-14.0-0.4","female","24","USA","42811","NWTKimg/FindOutNow.jpg","NWTKimg/KeepItSecret.jpg","NWTKimg/KeepItSecret.jpg","NWTKimg/FindOutNow.jpg","info","optim","3.06","","","","","","","","","","","","","","NWTKimg/FindOutNow.jpg",""
"4116.100000023842","{""undefined"":""100""}","survey-number","79","3182719","0.0-14.0-0.5","female","24","USA","42811","NWTKimg/FindOutNow.jpg","NWTKimg/KeepItSecret.jpg","NWTKimg/KeepItSecret.jpg","NWTKimg/FindOutNow.jpg","info","optim","3.06","","","","","","","","","","","","","","NWTKimg/FindOutNow.jpg",""
"1317.800000011921","{""undefined"":""80""}","survey-number","80","3184047","0.0-14.0-0.6","female","24","USA","42811","NWTKimg/FindOutNow.jpg","NWTKimg/KeepItSecret.jpg","NWTKimg/KeepItSecret.jpg","NWTKimg/FindOutNow.jpg","info","optim","3.06","","","","","","","","","","","","","","NWTKimg/FindOutNow.jpg",""
"1445.199999988079","{""undefined"":""0""}","survey-number","81","3185507","0.0-14.0-0.7","female","24","USA","42811","NWTKimg/FindOutNow.jpg","NWTKimg/KeepItSecret.jpg","NWTKimg/KeepItSecret.jpg","NWTKimg/FindOutNow.jpg","info","optim","3.06","","","","","","","","","","","","","","NWTKimg/FindOutNow.jpg",""
"3041.699999988079","{""undefined"":""100""}","survey-number","82","3188560","0.0-14.0-0.8","female","24","USA","42811","NWTKimg/FindOutNow.jpg","NWTKimg/KeepItSecret.jpg","NWTKimg/KeepItSecret.jpg","NWTKimg/FindOutNow.jpg","info","optim","3.06","","","","","","","","","","","","","","NWTKimg/FindOutNow.jpg",""
"2207.0999999940395","{""undefined"":""0""}","survey-number","83","3190777","0.0-14.0-0.9","female","24","USA","42811","NWTKimg/FindOutNow.jpg","NWTKimg/KeepItSecret.jpg","NWTKimg/KeepItSecret.jpg","NWTKimg/FindOutNow.jpg","info","optim","3.06","","","","","","","","","","","","","","NWTKimg/FindOutNow.jpg",""
"26481","","html-button-response","84","3217264","0.0-15.0","female","24","USA","42811","NWTKimg/FindOutNow.jpg","NWTKimg/KeepItSecret.jpg","NWTKimg/KeepItSecret.jpg","NWTKimg/FindOutNow.jpg","info","optim","3.06","<p><b>Imagine that you clicked on the below button for another 10 trials (this includes <i> both WIN and NO-WIN trials</i>).</p> <img src= 'NWTKimg/KeepItSecret.jpg'></img></br></br> <p><b>Please type the reward (number of points) you would expect to receive on every trial.</br> Click start to begin.</p>","0","","","","","","","","","","","","",""
"1586.800000011921","{""undefined"":""0""}","survey-number","85","3218860","0.0-16.0-0.0","female","24","USA","42811","NWTKimg/FindOutNow.jpg","NWTKimg/KeepItSecret.jpg","NWTKimg/KeepItSecret.jpg","NWTKimg/FindOutNow.jpg","info","optim","3.06","","","","","","","","","","","","","","NWTKimg/KeepItSecret.jpg",""
"2483.600000023842","{""undefined"":""70""}","survey-number","86","3221351","0.0-16.0-0.1","female","24","USA","42811","NWTKimg/FindOutNow.jpg","NWTKimg/KeepItSecret.jpg","NWTKimg/KeepItSecret.jpg","NWTKimg/FindOutNow.jpg","info","optim","3.06","","","","","","","","","","","","","","NWTKimg/KeepItSecret.jpg",""
"893.2999999821186","{""undefined"":""80""}","survey-number","87","3222253","0.0-16.0-0.2","female","24","USA","42811","NWTKimg/FindOutNow.jpg","NWTKimg/KeepItSecret.jpg","NWTKimg/KeepItSecret.jpg","NWTKimg/FindOutNow.jpg","info","optim","3.06","","","","","","","","","","","","","","NWTKimg/KeepItSecret.jpg",""
"1202.2999999821186","{""undefined"":""90""}","survey-number","88","3223463","0.0-16.0-0.3","female","24","USA","42811","NWTKimg/FindOutNow.jpg","NWTKimg/KeepItSecret.jpg","NWTKimg/KeepItSecret.jpg","NWTKimg/FindOutNow.jpg","info","optim","3.06","","","","","","","","","","","","","","NWTKimg/KeepItSecret.jpg",""
"576.5","{""undefined"":""0""}","survey-number","89","3224050","0.0-16.0-0.4","female","24","USA","42811","NWTKimg/FindOutNow.jpg","NWTKimg/KeepItSecret.jpg","NWTKimg/KeepItSecret.jpg","NWTKimg/FindOutNow.jpg","info","optim","3.06","","","","","","","","","","","","","","NWTKimg/KeepItSecret.jpg",""
"1413.8999999761581","{""undefined"":""80""}","survey-number","90","3225471","0.0-16.0-0.5","female","24","USA","42811","NWTKimg/FindOutNow.jpg","NWTKimg/KeepItSecret.jpg","NWTKimg/KeepItSecret.jpg","NWTKimg/FindOutNow.jpg","info","optim","3.06","","","","","","","","","","","","","","NWTKimg/KeepItSecret.jpg",""
"972.5","{""undefined"":""80""}","survey-number","91","3226449","0.0-16.0-0.6","female","24","USA","42811","NWTKimg/FindOutNow.jpg","NWTKimg/KeepItSecret.jpg","NWTKimg/KeepItSecret.jpg","NWTKimg/FindOutNow.jpg","info","optim","3.06","","","","","","","","","","","","","","NWTKimg/KeepItSecret.jpg",""
"1017.3000000119209","{""undefined"":""0""}","survey-number","92","3227476","0.0-16.0-0.7","female","24","USA","42811","NWTKimg/FindOutNow.jpg","NWTKimg/KeepItSecret.jpg","NWTKimg/KeepItSecret.jpg","NWTKimg/FindOutNow.jpg","info","optim","3.06","","","","","","","","","","","","","","NWTKimg/KeepItSecret.jpg",""
"571.4000000059605","{""undefined"":""0""}","survey-number","93","3228057","0.0-16.0-0.8","female","24","USA","42811","NWTKimg/FindOutNow.jpg","NWTKimg/KeepItSecret.jpg","NWTKimg/KeepItSecret.jpg","NWTKimg/FindOutNow.jpg","info","optim","3.06","","","","","","","","","","","","","","NWTKimg/KeepItSecret.jpg",""
"654","{""undefined"":""0""}","survey-number","94","3228718","0.0-16.0-0.9","female","24","USA","42811","NWTKimg/FindOutNow.jpg","NWTKimg/KeepItSecret.jpg","NWTKimg/KeepItSecret.jpg","NWTKimg/FindOutNow.jpg","info","optim","3.06","","","","","","","","","","","","","","NWTKimg/KeepItSecret.jpg",""
"13121.300000011921","{""undefined"":""80""}","survey-number","95","3241870","0.0-17.0","female","24","USA","42811","NWTKimg/FindOutNow.jpg","NWTKimg/KeepItSecret.jpg","NWTKimg/KeepItSecret.jpg","NWTKimg/FindOutNow.jpg","info","optim","3.06","","","","","","","","","","","","","","","NWTKimg/KeepItSecret.jpg"
"6099","{""undefined"":""80""}","survey-number","96","3247979","0.0-18.0","female","24","USA","42811","NWTKimg/FindOutNow.jpg","NWTKimg/KeepItSecret.jpg","NWTKimg/KeepItSecret.jpg","NWTKimg/FindOutNow.jpg","info","optim","3.06","","","","","","","","","","","","","","","NWTKimg/FindOutNow.jpg"
"4704","","html-button-response","97","3252693","0.0-19.0","female","24","USA","42811","NWTKimg/FindOutNow.jpg","NWTKimg/KeepItSecret.jpg","NWTKimg/KeepItSecret.jpg","NWTKimg/FindOutNow.jpg","info","optim","3.06","You are all done with the study! Thank you for your participation.<br><br><p> Your final points balance is 3063, which equals to a bonus payment of &pound;3.06.</p> <br><br> Please <b> press the 'Done!' button </b> to complete the task and be eligible for payment. <br> <br>Please note that you will receive a code which should be entered onto the Prolific app.","0","","","","","","","","","","","","",""
