"rt","stimulus","button_pressed","trial_type","trial_index","time_elapsed","internal_node_id","gender","age","language","PID","sona_id","subStim","optStim","stim1","stim2","infoCond","optimCond","bonus","responses","banditTrial","choice","cue","feedback","estimateData","leftOption","rightOption","choiceName","leftInput","rightInput","key_press","postQ","singleEst"
"9524","<p>Thank you for signing up to participate in SONA Study 465! <br> During this study, please focus on the experiment and refrain from activities such as:</p>- <b>Switching to other tabs on your browser (this will be monitored via the experiment)</br> - Using your mobile phone/cell phone</br> - Communicating with others</br></br></b><p>This way, you are helping to provide data that is useful for psychological research. We thank you for your cooperation!</p>","0","html-button-response","0","9528","0.0-0.0","female","18","Australia","19859","24812","imgNWTK/triangle.png","imgNWTK/square.png","imgNWTK/triangle.png","imgNWTK/square.png","noninfo","sub","3.13","","","","","","","","","","","","","",""
"1280","<p>Welcome to the experiment!</p><p>You will now read some instructions about the task. Press the 'Next' button to continue. </p>","0","html-button-response","1","10810","0.0-1.0","female","18","Australia","19859","24812","imgNWTK/triangle.png","imgNWTK/square.png","imgNWTK/triangle.png","imgNWTK/square.png","noninfo","sub","3.13","","","","","","","","","","","","","",""
"11713","<p> On each trial throughout the experiment you will choose between two options, </br>a <b>Black Square </b> and <b> Black Triangle </b>, as seen below.</p><div><div style= 'float: left; width: 300px; margin: 10px 10px;'><img src= 'imgNWTK/square.png'></img></div><div style= 'float: right; width: 300px; margin: 10px 10px;'><img src= 'imgNWTK/triangle.png'></img></div></div><br/><br/><br/><br/><br/><br/><br/><br/><br/><br/><br/><p>Each option results in winning points or receiving 0 points.</br>There is a 50% chance of either winning or receiving 0 points.</p><p>You won't receive the outcome until after a <b> 20 second delay</b>.</p>","0","html-button-response","2","22527","0.0-2.0-0.0","female","18","Australia","19859","24812","imgNWTK/triangle.png","imgNWTK/square.png","imgNWTK/triangle.png","imgNWTK/square.png","noninfo","sub","3.13","","","","","","","","","","","","","",""
"19164","<img src= 'imgNWTK/NonInfoDiagram.png'></img><p>As seen above, whether you choose the square or triangle, you will receive a coloured circle after the choice. </p> <p>This circle will be on screen for 20 seconds until you win points or receive 0 points.</p><p>The coloured circle depends on which option you chose. </br> In the above example, choosing a triangle leads to a green circle and choosing the square leads to a red circle.</p>Please note: the circles in your task will be different to the above colours.</br></br>","0","html-button-response","3","41693","0.0-2.0-1.0","female","18","Australia","19859","24812","imgNWTK/triangle.png","imgNWTK/square.png","imgNWTK/triangle.png","imgNWTK/square.png","noninfo","sub","3.13","","","","","","","","","","","","","",""
"5880","<img src= 'cues/winTrials_noInfo.png' width = '1200'></img><p>To reiterate, 50% of the outcomes of each option will be WIN TRIALS, and the other 50% will be NO-WIN TRIALS.","0","html-button-response","4","47576","0.0-2.0-2.0","female","18","Australia","19859","24812","imgNWTK/triangle.png","imgNWTK/square.png","imgNWTK/triangle.png","imgNWTK/square.png","noninfo","sub","3.13","","","","","","","","","","","","","",""
"13097","<p> There will be <b>four blocks</b> in the experiment.</br>You will be given a short 15 second break between each block.</p><p><b>The points and the options will remain the same between the blocks.</b></p>The blocks are there just to give you a small break.</br></br></br></br><p>The points you earn in the task are also equal to <b> actual money</b>.</br> <b>1000 points is equal to $1 AUD</b></p><p>This is the rate you will be paid at the experiment's end.","0","html-button-response","5","60676","0.0-2.0-3.0","female","18","Australia","19859","24812","imgNWTK/triangle.png","imgNWTK/square.png","imgNWTK/triangle.png","imgNWTK/square.png","noninfo","sub","3.13","","","","","","","","","","","","","",""
"13076","","","survey-multi-choice","6","73762","0.0-2.0-4.0","female","18","Australia","19859","24812","imgNWTK/triangle.png","imgNWTK/square.png","imgNWTK/triangle.png","imgNWTK/square.png","noninfo","sub","3.13","{""Q0"":""20 Seconds"",""Q1"":""True"",""Q2"":""Equally""}","","","","","","","","","","","","",""
"1306","<p> Well done, all your answers were correct! <br> The experiment is about to start now. <br/> Click start to continue, or email your researcher <b>(amy.x.li@unsw.edu.au)</b> if you have any questions before starting.","0","html-button-response","7","75077","0.0-3.0","female","18","Australia","19859","24812","imgNWTK/triangle.png","imgNWTK/square.png","imgNWTK/triangle.png","imgNWTK/square.png","noninfo","sub","3.13","","","","","","","","","","","","","",""
"4591","","","bandit-task-exp6","8","82744","0.0-4.0-0.0","female","18","Australia","19859","24812","imgNWTK/triangle.png","imgNWTK/square.png","imgNWTK/triangle.png","imgNWTK/square.png","noninfo","sub","3.13","","1","2","1","0","null","imgNWTK/square.png","imgNWTK/triangle.png","imgNWTK/square.png","NaN","NaN","","",""
"2427","","","bandit-task-exp6","9","88144","0.0-4.0-0.1","female","18","Australia","19859","24812","imgNWTK/triangle.png","imgNWTK/square.png","imgNWTK/triangle.png","imgNWTK/square.png","noninfo","sub","3.13","","2","2","2","72","null","imgNWTK/square.png","imgNWTK/triangle.png","imgNWTK/square.png","NaN","NaN","","",""
"1912","","","bandit-task-exp6","10","92991","0.0-4.0-0.2","female","18","Australia","19859","24812","imgNWTK/triangle.png","imgNWTK/square.png","imgNWTK/triangle.png","imgNWTK/square.png","noninfo","sub","3.13","","3","1","1","126","null","imgNWTK/triangle.png","imgNWTK/square.png","imgNWTK/triangle.png","NaN","NaN","","",""
"1230","","","bandit-task-exp6","11","97144","0.0-4.0-0.3","female","18","Australia","19859","24812","imgNWTK/triangle.png","imgNWTK/square.png","imgNWTK/triangle.png","imgNWTK/square.png","noninfo","sub","3.13","","4","2","2","89","null","imgNWTK/triangle.png","imgNWTK/square.png","imgNWTK/square.png","NaN","NaN","","",""
"2045","","","bandit-task-exp6","12","102075","0.0-4.0-0.4","female","18","Australia","19859","24812","imgNWTK/triangle.png","imgNWTK/square.png","imgNWTK/triangle.png","imgNWTK/square.png","noninfo","sub","3.13","","5","1","1","113","null","imgNWTK/square.png","imgNWTK/triangle.png","imgNWTK/triangle.png","NaN","NaN","","",""
"2064","","","bandit-task-exp6","13","107093","0.0-4.0-0.5","female","18","Australia","19859","24812","imgNWTK/triangle.png","imgNWTK/square.png","imgNWTK/triangle.png","imgNWTK/square.png","noninfo","sub","3.13","","6","1","1","119","null","imgNWTK/triangle.png","imgNWTK/square.png","imgNWTK/triangle.png","NaN","NaN","","",""
"1662","","","bandit-task-exp6","14","111559","0.0-4.0-0.6","female","18","Australia","19859","24812","imgNWTK/triangle.png","imgNWTK/square.png","imgNWTK/triangle.png","imgNWTK/square.png","noninfo","sub","3.13","","7","2","2","70","null","imgNWTK/square.png","imgNWTK/triangle.png","imgNWTK/square.png","NaN","NaN","","",""
"2446","","","bandit-task-exp6","15","116942","0.0-4.0-0.7","female","18","Australia","19859","24812","imgNWTK/triangle.png","imgNWTK/square.png","imgNWTK/triangle.png","imgNWTK/square.png","noninfo","sub","3.13","","8","1","2","0","null","imgNWTK/square.png","imgNWTK/triangle.png","imgNWTK/triangle.png","NaN","NaN","","",""
"945","","","bandit-task-exp6","16","120510","0.0-4.0-0.8","female","18","Australia","19859","24812","imgNWTK/triangle.png","imgNWTK/square.png","imgNWTK/triangle.png","imgNWTK/square.png","noninfo","sub","3.13","","9","2","2","75","null","imgNWTK/square.png","imgNWTK/triangle.png","imgNWTK/square.png","NaN","NaN","","",""
"727","","","bandit-task-exp6","17","123926","0.0-4.0-0.9","female","18","Australia","19859","24812","imgNWTK/triangle.png","imgNWTK/square.png","imgNWTK/triangle.png","imgNWTK/square.png","noninfo","sub","3.13","","10","2","1","0","null","imgNWTK/triangle.png","imgNWTK/square.png","imgNWTK/square.png","NaN","NaN","","",""
"631","","","bandit-task-exp6","18","127459","0.0-4.0-0.10","female","18","Australia","19859","24812","imgNWTK/triangle.png","imgNWTK/square.png","imgNWTK/triangle.png","imgNWTK/square.png","noninfo","sub","3.13","","11","2","2","74","null","imgNWTK/square.png","imgNWTK/triangle.png","imgNWTK/square.png","NaN","NaN","","",""
"797","","","bandit-task-exp6","19","130993","0.0-4.0-0.11","female","18","Australia","19859","24812","imgNWTK/triangle.png","imgNWTK/square.png","imgNWTK/triangle.png","imgNWTK/square.png","noninfo","sub","3.13","","12","2","1","0","null","imgNWTK/square.png","imgNWTK/triangle.png","imgNWTK/square.png","NaN","NaN","","",""
"712","","","bandit-task-exp6","20","134493","0.0-4.0-0.12","female","18","Australia","19859","24812","imgNWTK/triangle.png","imgNWTK/square.png","imgNWTK/triangle.png","imgNWTK/square.png","noninfo","sub","3.13","","13","1","1","113","null","imgNWTK/square.png","imgNWTK/triangle.png","imgNWTK/triangle.png","NaN","NaN","","",""
"695","","","bandit-task-exp6","21","138044","0.0-4.0-0.13","female","18","Australia","19859","24812","imgNWTK/triangle.png","imgNWTK/square.png","imgNWTK/triangle.png","imgNWTK/square.png","noninfo","sub","3.13","","14","2","2","88","null","imgNWTK/triangle.png","imgNWTK/square.png","imgNWTK/square.png","NaN","NaN","","",""
"1410","","","bandit-task-exp6","22","142025","0.0-4.0-0.14","female","18","Australia","19859","24812","imgNWTK/triangle.png","imgNWTK/square.png","imgNWTK/triangle.png","imgNWTK/square.png","noninfo","sub","3.13","","15","1","2","0","null","imgNWTK/triangle.png","imgNWTK/square.png","imgNWTK/triangle.png","NaN","NaN","","",""
"null","<p><b> Congratulations, you have finished this block. </b> </p><p>Please take a short break before moving onto the next block.</p><p>The next block will start after a 15 second break.</p><b>Remember, the point rewards are the same between blocks","","html-keyboard-response","23","157033","0.0-5.0","female","18","Australia","19859","24812","imgNWTK/triangle.png","imgNWTK/square.png","imgNWTK/triangle.png","imgNWTK/square.png","noninfo","sub","3.13","","","","","","","","","","","","null","",""
"3704","","","bandit-task-exp6","24","163559","0.0-6.0-0.0","female","18","Australia","19859","24812","imgNWTK/triangle.png","imgNWTK/square.png","imgNWTK/triangle.png","imgNWTK/square.png","noninfo","sub","3.13","","16","2","1","0","null","imgNWTK/triangle.png","imgNWTK/square.png","imgNWTK/square.png","NaN","NaN","","",""
"829","","","bandit-task-exp6","25","166909","0.0-6.0-0.1","female","18","Australia","19859","24812","imgNWTK/triangle.png","imgNWTK/square.png","imgNWTK/triangle.png","imgNWTK/square.png","noninfo","sub","3.13","","17","2","1","0","null","imgNWTK/square.png","imgNWTK/triangle.png","imgNWTK/square.png","NaN","NaN","","",""
"747","","","bandit-task-exp6","26","170141","0.0-6.0-0.2","female","18","Australia","19859","24812","imgNWTK/triangle.png","imgNWTK/square.png","imgNWTK/triangle.png","imgNWTK/square.png","noninfo","sub","3.13","","18","1","2","0","null","imgNWTK/triangle.png","imgNWTK/square.png","imgNWTK/triangle.png","NaN","NaN","","",""
"698","","","bandit-task-exp6","27","173575","0.0-6.0-0.3","female","18","Australia","19859","24812","imgNWTK/triangle.png","imgNWTK/square.png","imgNWTK/triangle.png","imgNWTK/square.png","noninfo","sub","3.13","","19","1","1","123","null","imgNWTK/square.png","imgNWTK/triangle.png","imgNWTK/triangle.png","NaN","NaN","","",""
"1013","","","bandit-task-exp6","28","177026","0.0-6.0-0.4","female","18","Australia","19859","24812","imgNWTK/triangle.png","imgNWTK/square.png","imgNWTK/triangle.png","imgNWTK/square.png","noninfo","sub","3.13","","20","1","2","0","null","imgNWTK/triangle.png","imgNWTK/square.png","imgNWTK/triangle.png","NaN","NaN","","",""
"962","","","bandit-task-exp6","29","180409","0.0-6.0-0.5","female","18","Australia","19859","24812","imgNWTK/triangle.png","imgNWTK/square.png","imgNWTK/triangle.png","imgNWTK/square.png","noninfo","sub","3.13","","21","2","2","82","null","imgNWTK/triangle.png","imgNWTK/square.png","imgNWTK/square.png","NaN","NaN","","",""
"645","","","bandit-task-exp6","30","183609","0.0-6.0-0.6","female","18","Australia","19859","24812","imgNWTK/triangle.png","imgNWTK/square.png","imgNWTK/triangle.png","imgNWTK/square.png","noninfo","sub","3.13","","22","2","2","82","null","imgNWTK/triangle.png","imgNWTK/square.png","imgNWTK/square.png","NaN","NaN","","",""
"813","","","bandit-task-exp6","31","186909","0.0-6.0-0.7","female","18","Australia","19859","24812","imgNWTK/triangle.png","imgNWTK/square.png","imgNWTK/triangle.png","imgNWTK/square.png","noninfo","sub","3.13","","23","2","2","74","null","imgNWTK/triangle.png","imgNWTK/square.png","imgNWTK/square.png","NaN","NaN","","",""
"696","","","bandit-task-exp6","32","190175","0.0-6.0-0.8","female","18","Australia","19859","24812","imgNWTK/triangle.png","imgNWTK/square.png","imgNWTK/triangle.png","imgNWTK/square.png","noninfo","sub","3.13","","24","2","2","72","null","imgNWTK/triangle.png","imgNWTK/square.png","imgNWTK/square.png","NaN","NaN","","",""
"913","","","bandit-task-exp6","33","193742","0.0-6.0-0.9","female","18","Australia","19859","24812","imgNWTK/triangle.png","imgNWTK/square.png","imgNWTK/triangle.png","imgNWTK/square.png","noninfo","sub","3.13","","25","2","2","89","null","imgNWTK/triangle.png","imgNWTK/square.png","imgNWTK/square.png","NaN","NaN","","",""
"1047","","","bandit-task-exp6","34","197927","0.0-6.0-0.10","female","18","Australia","19859","24812","imgNWTK/triangle.png","imgNWTK/square.png","imgNWTK/triangle.png","imgNWTK/square.png","noninfo","sub","3.13","","26","2","2","73","null","imgNWTK/square.png","imgNWTK/triangle.png","imgNWTK/square.png","NaN","NaN","","",""
"928","","","bandit-task-exp6","35","201542","0.0-6.0-0.11","female","18","Australia","19859","24812","imgNWTK/triangle.png","imgNWTK/square.png","imgNWTK/triangle.png","imgNWTK/square.png","noninfo","sub","3.13","","27","2","1","0","null","imgNWTK/triangle.png","imgNWTK/square.png","imgNWTK/square.png","NaN","NaN","","",""
"879","","","bandit-task-exp6","36","204959","0.0-6.0-0.12","female","18","Australia","19859","24812","imgNWTK/triangle.png","imgNWTK/square.png","imgNWTK/triangle.png","imgNWTK/square.png","noninfo","sub","3.13","","28","1","1","120","null","imgNWTK/square.png","imgNWTK/triangle.png","imgNWTK/triangle.png","NaN","NaN","","",""
"762","","","bandit-task-exp6","37","208495","0.0-6.0-0.13","female","18","Australia","19859","24812","imgNWTK/triangle.png","imgNWTK/square.png","imgNWTK/triangle.png","imgNWTK/square.png","noninfo","sub","3.13","","29","1","2","0","null","imgNWTK/square.png","imgNWTK/triangle.png","imgNWTK/triangle.png","NaN","NaN","","",""
"809","","","bandit-task-exp6","38","211976","0.0-6.0-0.14","female","18","Australia","19859","24812","imgNWTK/triangle.png","imgNWTK/square.png","imgNWTK/triangle.png","imgNWTK/square.png","noninfo","sub","3.13","","30","1","1","130","null","imgNWTK/triangle.png","imgNWTK/square.png","imgNWTK/triangle.png","NaN","NaN","","",""
"null","<p><b> Congratulations, you have finished this block. </b> </p><p>Please take a short break before moving onto the next block.</p><p>The next block will start after a 15 second break.</p><b>Remember, the point rewards are the same between blocks","","html-keyboard-response","39","226982","0.0-7.0","female","18","Australia","19859","24812","imgNWTK/triangle.png","imgNWTK/square.png","imgNWTK/triangle.png","imgNWTK/square.png","noninfo","sub","3.13","","","","","","","","","","","","null","",""
"4205","","","bandit-task-exp6","40","234325","0.0-8.0-0.0","female","18","Australia","19859","24812","imgNWTK/triangle.png","imgNWTK/square.png","imgNWTK/triangle.png","imgNWTK/square.png","noninfo","sub","3.13","","31","1","1","118","null","imgNWTK/triangle.png","imgNWTK/square.png","imgNWTK/triangle.png","NaN","NaN","","",""
"595","","","bandit-task-exp6","41","237443","0.0-8.0-0.1","female","18","Australia","19859","24812","imgNWTK/triangle.png","imgNWTK/square.png","imgNWTK/triangle.png","imgNWTK/square.png","noninfo","sub","3.13","","32","1","2","0","null","imgNWTK/triangle.png","imgNWTK/square.png","imgNWTK/triangle.png","NaN","NaN","","",""
"744","","","bandit-task-exp6","42","240625","0.0-8.0-0.2","female","18","Australia","19859","24812","imgNWTK/triangle.png","imgNWTK/square.png","imgNWTK/triangle.png","imgNWTK/square.png","noninfo","sub","3.13","","33","1","2","0","null","imgNWTK/square.png","imgNWTK/triangle.png","imgNWTK/triangle.png","NaN","NaN","","",""
"630","","","bandit-task-exp6","43","244059","0.0-8.0-0.3","female","18","Australia","19859","24812","imgNWTK/triangle.png","imgNWTK/square.png","imgNWTK/triangle.png","imgNWTK/square.png","noninfo","sub","3.13","","34","2","2","76","null","imgNWTK/square.png","imgNWTK/triangle.png","imgNWTK/square.png","NaN","NaN","","",""
"695","","","bandit-task-exp6","44","247392","0.0-8.0-0.4","female","18","Australia","19859","24812","imgNWTK/triangle.png","imgNWTK/square.png","imgNWTK/triangle.png","imgNWTK/square.png","noninfo","sub","3.13","","35","2","1","0","null","imgNWTK/square.png","imgNWTK/triangle.png","imgNWTK/square.png","NaN","NaN","","",""
"764","","","bandit-task-exp6","45","250692","0.0-8.0-0.5","female","18","Australia","19859","24812","imgNWTK/triangle.png","imgNWTK/square.png","imgNWTK/triangle.png","imgNWTK/square.png","noninfo","sub","3.13","","36","2","1","0","null","imgNWTK/triangle.png","imgNWTK/square.png","imgNWTK/square.png","NaN","NaN","","",""
"730","","","bandit-task-exp6","46","253958","0.0-8.0-0.6","female","18","Australia","19859","24812","imgNWTK/triangle.png","imgNWTK/square.png","imgNWTK/triangle.png","imgNWTK/square.png","noninfo","sub","3.13","","37","1","2","0","null","imgNWTK/square.png","imgNWTK/triangle.png","imgNWTK/triangle.png","NaN","NaN","","",""
"563","","","bandit-task-exp6","47","256959","0.0-8.0-0.7","female","18","Australia","19859","24812","imgNWTK/triangle.png","imgNWTK/square.png","imgNWTK/triangle.png","imgNWTK/square.png","noninfo","sub","3.13","","38","2","1","0","null","imgNWTK/square.png","imgNWTK/triangle.png","imgNWTK/square.png","NaN","NaN","","",""
"513","","","bandit-task-exp6","48","259892","0.0-8.0-0.8","female","18","Australia","19859","24812","imgNWTK/triangle.png","imgNWTK/square.png","imgNWTK/triangle.png","imgNWTK/square.png","noninfo","sub","3.13","","39","2","1","0","null","imgNWTK/triangle.png","imgNWTK/square.png","imgNWTK/square.png","NaN","NaN","","",""
"711","","","bandit-task-exp6","49","263242","0.0-8.0-0.9","female","18","Australia","19859","24812","imgNWTK/triangle.png","imgNWTK/square.png","imgNWTK/triangle.png","imgNWTK/square.png","noninfo","sub","3.13","","40","1","2","0","null","imgNWTK/square.png","imgNWTK/triangle.png","imgNWTK/triangle.png","NaN","NaN","","",""
"696","","","bandit-task-exp6","50","266441","0.0-8.0-0.10","female","18","Australia","19859","24812","imgNWTK/triangle.png","imgNWTK/square.png","imgNWTK/triangle.png","imgNWTK/square.png","noninfo","sub","3.13","","41","1","2","0","null","imgNWTK/triangle.png","imgNWTK/square.png","imgNWTK/triangle.png","NaN","NaN","","",""
"847","","","bandit-task-exp6","51","269792","0.0-8.0-0.11","female","18","Australia","19859","24812","imgNWTK/triangle.png","imgNWTK/square.png","imgNWTK/triangle.png","imgNWTK/square.png","noninfo","sub","3.13","","42","2","1","0","null","imgNWTK/square.png","imgNWTK/triangle.png","imgNWTK/square.png","NaN","NaN","","",""
"579","","","bandit-task-exp6","52","272975","0.0-8.0-0.12","female","18","Australia","19859","24812","imgNWTK/triangle.png","imgNWTK/square.png","imgNWTK/triangle.png","imgNWTK/square.png","noninfo","sub","3.13","","43","2","2","79","null","imgNWTK/square.png","imgNWTK/triangle.png","imgNWTK/square.png","NaN","NaN","","",""
"797","","","bandit-task-exp6","53","276175","0.0-8.0-0.13","female","18","Australia","19859","24812","imgNWTK/triangle.png","imgNWTK/square.png","imgNWTK/triangle.png","imgNWTK/square.png","noninfo","sub","3.13","","44","1","1","130","null","imgNWTK/triangle.png","imgNWTK/square.png","imgNWTK/triangle.png","NaN","NaN","","",""
"579","","","bandit-task-exp6","54","279258","0.0-8.0-0.14","female","18","Australia","19859","24812","imgNWTK/triangle.png","imgNWTK/square.png","imgNWTK/triangle.png","imgNWTK/square.png","noninfo","sub","3.13","","45","1","1","110","null","imgNWTK/triangle.png","imgNWTK/square.png","imgNWTK/triangle.png","NaN","NaN","","",""
"null","<p><b> Congratulations, you have finished this block. </b> </p><p>Please take a short break before moving onto the next block.</p><p>The next block will start after a 15 second break.</p><b>Remember, the point rewards are the same between blocks","","html-keyboard-response","55","294264","0.0-9.0","female","18","Australia","19859","24812","imgNWTK/triangle.png","imgNWTK/square.png","imgNWTK/triangle.png","imgNWTK/square.png","noninfo","sub","3.13","","","","","","","","","","","","null","",""
"21157","","","bandit-task-exp6","56","318524","0.0-10.0-0.0","female","18","Australia","19859","24812","imgNWTK/triangle.png","imgNWTK/square.png","imgNWTK/triangle.png","imgNWTK/square.png","noninfo","sub","3.13","","46","1","2","0","null","imgNWTK/triangle.png","imgNWTK/square.png","imgNWTK/triangle.png","130","0","","",""
"7930","","","bandit-task-exp6","57","329358","0.0-10.0-0.1","female","18","Australia","19859","24812","imgNWTK/triangle.png","imgNWTK/square.png","imgNWTK/triangle.png","imgNWTK/square.png","noninfo","sub","3.13","","47","2","2","71","null","imgNWTK/triangle.png","imgNWTK/square.png","imgNWTK/square.png","0","120","","",""
"6161","","","bandit-task-exp6","58","338592","0.0-10.0-0.2","female","18","Australia","19859","24812","imgNWTK/triangle.png","imgNWTK/square.png","imgNWTK/triangle.png","imgNWTK/square.png","noninfo","sub","3.13","","48","2","2","87","null","imgNWTK/square.png","imgNWTK/triangle.png","imgNWTK/square.png","70","0","","",""
"7578","","","bandit-task-exp6","59","349557","0.0-10.0-0.3","female","18","Australia","19859","24812","imgNWTK/triangle.png","imgNWTK/square.png","imgNWTK/triangle.png","imgNWTK/square.png","noninfo","sub","3.13","","49","2","1","0","null","imgNWTK/triangle.png","imgNWTK/square.png","imgNWTK/square.png","0","87","","",""
"4064","","","bandit-task-exp6","60","356541","0.0-10.0-0.4","female","18","Australia","19859","24812","imgNWTK/triangle.png","imgNWTK/square.png","imgNWTK/triangle.png","imgNWTK/square.png","noninfo","sub","3.13","","50","1","1","129","null","imgNWTK/square.png","imgNWTK/triangle.png","imgNWTK/triangle.png","0","56","","",""
"6462","","","bandit-task-exp6","61","365592","0.0-10.0-0.5","female","18","Australia","19859","24812","imgNWTK/triangle.png","imgNWTK/square.png","imgNWTK/triangle.png","imgNWTK/square.png","noninfo","sub","3.13","","51","1","2","0","null","imgNWTK/triangle.png","imgNWTK/square.png","imgNWTK/triangle.png","110","0","","",""
"4445","","","bandit-task-exp6","62","372674","0.0-10.0-0.6","female","18","Australia","19859","24812","imgNWTK/triangle.png","imgNWTK/square.png","imgNWTK/triangle.png","imgNWTK/square.png","noninfo","sub","3.13","","52","2","1","0","null","imgNWTK/square.png","imgNWTK/triangle.png","imgNWTK/square.png","90","0","","",""
"5314","","","bandit-task-exp6","63","381208","0.0-10.0-0.7","female","18","Australia","19859","24812","imgNWTK/triangle.png","imgNWTK/square.png","imgNWTK/triangle.png","imgNWTK/square.png","noninfo","sub","3.13","","53","2","1","0","null","imgNWTK/triangle.png","imgNWTK/square.png","imgNWTK/square.png","0","90","","",""
"7663","","","bandit-task-exp6","64","391807","0.0-10.0-0.8","female","18","Australia","19859","24812","imgNWTK/triangle.png","imgNWTK/square.png","imgNWTK/triangle.png","imgNWTK/square.png","noninfo","sub","3.13","","54","1","1","110","null","imgNWTK/triangle.png","imgNWTK/square.png","imgNWTK/triangle.png","80","0","","",""
"5363","","","bandit-task-exp6","65","400295","0.0-10.0-0.9","female","18","Australia","19859","24812","imgNWTK/triangle.png","imgNWTK/square.png","imgNWTK/triangle.png","imgNWTK/square.png","noninfo","sub","3.13","","55","1","1","118","null","imgNWTK/square.png","imgNWTK/triangle.png","imgNWTK/triangle.png","0","100","","",""
"5293","","","bandit-task-exp6","66","408962","0.0-10.0-0.10","female","18","Australia","19859","24812","imgNWTK/triangle.png","imgNWTK/square.png","imgNWTK/triangle.png","imgNWTK/square.png","noninfo","sub","3.13","","56","1","1","119","null","imgNWTK/triangle.png","imgNWTK/square.png","imgNWTK/triangle.png","110","0","","",""
"4910","","","bandit-task-exp6","67","417091","0.0-10.0-0.11","female","18","Australia","19859","24812","imgNWTK/triangle.png","imgNWTK/square.png","imgNWTK/triangle.png","imgNWTK/square.png","noninfo","sub","3.13","","57","1","1","122","null","imgNWTK/triangle.png","imgNWTK/square.png","imgNWTK/triangle.png","120","0","","",""
"6314","","","bandit-task-exp6","68","426858","0.0-10.0-0.12","female","18","Australia","19859","24812","imgNWTK/triangle.png","imgNWTK/square.png","imgNWTK/triangle.png","imgNWTK/square.png","noninfo","sub","3.13","","58","1","2","0","null","imgNWTK/square.png","imgNWTK/triangle.png","imgNWTK/triangle.png","0","120","","",""
"4944","","","bandit-task-exp6","69","435177","0.0-10.0-0.13","female","18","Australia","19859","24812","imgNWTK/triangle.png","imgNWTK/square.png","imgNWTK/triangle.png","imgNWTK/square.png","noninfo","sub","3.13","","59","2","1","0","null","imgNWTK/square.png","imgNWTK/triangle.png","imgNWTK/square.png","87","0","","",""
"5443","","","bandit-task-exp6","70","444426","0.0-10.0-0.14","female","18","Australia","19859","24812","imgNWTK/triangle.png","imgNWTK/square.png","imgNWTK/triangle.png","imgNWTK/square.png","noninfo","sub","3.13","","60","2","2","81","null","imgNWTK/triangle.png","imgNWTK/square.png","imgNWTK/square.png","97","0","","",""
"2445","<p> Congratulations, you have finished the main part of the experiment. </p><p>Before you finish, we have a few short questions about the options and outcomes you saw in the task.</p>","0","html-button-response","71","446874","0.0-11.0","female","18","Australia","19859","24812","imgNWTK/triangle.png","imgNWTK/square.png","imgNWTK/triangle.png","imgNWTK/square.png","noninfo","sub","3.13","","","","","","","","","","","","","",""
"9047","<p><b>Now, imagine that you clicked on the below button for another 10 trials (this includes <i> BOTH WIN and NO-WIN trials</i>).</p> <img src= 'imgNWTK/square.png'></img></br></br> <p><b>Please type the reward (number of points) you would expect to receive on every trial.</br> Click start to begin.</p>","0","html-button-response","72","455925","0.0-12.0","female","18","Australia","19859","24812","imgNWTK/triangle.png","imgNWTK/square.png","imgNWTK/triangle.png","imgNWTK/square.png","noninfo","sub","3.13","","","","","","","","","","","","","",""
"10035.599999904633","","","survey-number","73","465967","0.0-13.0-0.0","female","18","Australia","19859","24812","imgNWTK/triangle.png","imgNWTK/square.png","imgNWTK/triangle.png","imgNWTK/square.png","noninfo","sub","3.13","{""undefined"":""87""}","","","","","","","","","","","","imgNWTK/square.png",""
"3879.7999999523163","","","survey-number","74","469852","0.0-13.0-0.1","female","18","Australia","19859","24812","imgNWTK/triangle.png","imgNWTK/square.png","imgNWTK/triangle.png","imgNWTK/square.png","noninfo","sub","3.13","{""undefined"":""0""}","","","","","","","","","","","","imgNWTK/square.png",""
"1370.3999999761581","","","survey-number","75","471227","0.0-13.0-0.2","female","18","Australia","19859","24812","imgNWTK/triangle.png","imgNWTK/square.png","imgNWTK/triangle.png","imgNWTK/square.png","noninfo","sub","3.13","{""undefined"":""0""}","","","","","","","","","","","","imgNWTK/square.png",""
"2267.6999999284744","","","survey-number","76","473499","0.0-13.0-0.3","female","18","Australia","19859","24812","imgNWTK/triangle.png","imgNWTK/square.png","imgNWTK/triangle.png","imgNWTK/square.png","noninfo","sub","3.13","{""undefined"":""80""}","","","","","","","","","","","","imgNWTK/square.png",""
"1110.8999999761581","","","survey-number","77","474615","0.0-13.0-0.4","female","18","Australia","19859","24812","imgNWTK/triangle.png","imgNWTK/square.png","imgNWTK/triangle.png","imgNWTK/square.png","noninfo","sub","3.13","{""undefined"":""0""}","","","","","","","","","","","","imgNWTK/square.png",""
"2226","","","survey-number","78","476846","0.0-13.0-0.5","female","18","Australia","19859","24812","imgNWTK/triangle.png","imgNWTK/square.png","imgNWTK/triangle.png","imgNWTK/square.png","noninfo","sub","3.13","{""undefined"":""97""}","","","","","","","","","","","","imgNWTK/square.png",""
"1128.7000000476837","","","survey-number","79","477979","0.0-13.0-0.6","female","18","Australia","19859","24812","imgNWTK/triangle.png","imgNWTK/square.png","imgNWTK/triangle.png","imgNWTK/square.png","noninfo","sub","3.13","{""undefined"":""110""}","","","","","","","","","","","","imgNWTK/square.png",""
"2024.5","","","survey-number","80","480007","0.0-13.0-0.7","female","18","Australia","19859","24812","imgNWTK/triangle.png","imgNWTK/square.png","imgNWTK/triangle.png","imgNWTK/square.png","noninfo","sub","3.13","{""undefined"":""70""}","","","","","","","","","","","","imgNWTK/square.png",""
"688.1000000238419","","","survey-number","81","480700","0.0-13.0-0.8","female","18","Australia","19859","24812","imgNWTK/triangle.png","imgNWTK/square.png","imgNWTK/triangle.png","imgNWTK/square.png","noninfo","sub","3.13","{""undefined"":""0""}","","","","","","","","","","","","imgNWTK/square.png",""
"3524.2000000476837","","","survey-number","82","484227","0.0-13.0-0.9","female","18","Australia","19859","24812","imgNWTK/triangle.png","imgNWTK/square.png","imgNWTK/triangle.png","imgNWTK/square.png","noninfo","sub","3.13","{""undefined"":""0""}","","","","","","","","","","","","imgNWTK/square.png",""
"3010","<p><b>Imagine that you clicked on the below button for another 10 trials (this includes <i> both WIN and NO-WIN trials</i>).</p> <img src= 'imgNWTK/triangle.png'></img></br></br> <p><b>Please type the reward (number of points) you would expect to receive on every trial.</br> Click start to begin.</p>","0","html-button-response","83","487241","0.0-14.0","female","18","Australia","19859","24812","imgNWTK/triangle.png","imgNWTK/square.png","imgNWTK/triangle.png","imgNWTK/square.png","noninfo","sub","3.13","","","","","","","","","","","","","",""
"2991.5","","","survey-number","84","490238","0.0-15.0-0.0","female","18","Australia","19859","24812","imgNWTK/triangle.png","imgNWTK/square.png","imgNWTK/triangle.png","imgNWTK/square.png","noninfo","sub","3.13","{""undefined"":""0""}","","","","","","","","","","","","imgNWTK/triangle.png",""
"1815.7000000476837","","","survey-number","85","492058","0.0-15.0-0.1","female","18","Australia","19859","24812","imgNWTK/triangle.png","imgNWTK/square.png","imgNWTK/triangle.png","imgNWTK/square.png","noninfo","sub","3.13","{""undefined"":""120""}","","","","","","","","","","","","imgNWTK/triangle.png",""
"1240.9000000953674","","","survey-number","86","493305","0.0-15.0-0.2","female","18","Australia","19859","24812","imgNWTK/triangle.png","imgNWTK/square.png","imgNWTK/triangle.png","imgNWTK/square.png","noninfo","sub","3.13","{""undefined"":""110""}","","","","","","","","","","","","imgNWTK/triangle.png",""
"1678.3999999761581","","","survey-number","87","494987","0.0-15.0-0.3","female","18","Australia","19859","24812","imgNWTK/triangle.png","imgNWTK/square.png","imgNWTK/triangle.png","imgNWTK/square.png","noninfo","sub","3.13","{""undefined"":""117""}","","","","","","","","","","","","imgNWTK/triangle.png",""
"705.6999999284744","","","survey-number","88","495697","0.0-15.0-0.4","female","18","Australia","19859","24812","imgNWTK/triangle.png","imgNWTK/square.png","imgNWTK/triangle.png","imgNWTK/square.png","noninfo","sub","3.13","{""undefined"":""0""}","","","","","","","","","","","","imgNWTK/triangle.png",""
"678.6000000238419","","","survey-number","89","496380","0.0-15.0-0.5","female","18","Australia","19859","24812","imgNWTK/triangle.png","imgNWTK/square.png","imgNWTK/triangle.png","imgNWTK/square.png","noninfo","sub","3.13","{""undefined"":""0""}","","","","","","","","","","","","imgNWTK/triangle.png",""
"2604.9000000953674","","","survey-number","90","498990","0.0-15.0-0.6","female","18","Australia","19859","24812","imgNWTK/triangle.png","imgNWTK/square.png","imgNWTK/triangle.png","imgNWTK/square.png","noninfo","sub","3.13","{""undefined"":""90""}","","","","","","","","","","","","imgNWTK/triangle.png",""
"664.1000000238419","","","survey-number","91","499660","0.0-15.0-0.7","female","18","Australia","19859","24812","imgNWTK/triangle.png","imgNWTK/square.png","imgNWTK/triangle.png","imgNWTK/square.png","noninfo","sub","3.13","{""undefined"":""0""}","","","","","","","","","","","","imgNWTK/triangle.png",""
"1457.3999999761581","","","survey-number","92","501123","0.0-15.0-0.8","female","18","Australia","19859","24812","imgNWTK/triangle.png","imgNWTK/square.png","imgNWTK/triangle.png","imgNWTK/square.png","noninfo","sub","3.13","{""undefined"":""97""}","","","","","","","","","","","","imgNWTK/triangle.png",""
"1156.8999999761581","","","survey-number","93","502284","0.0-15.0-0.9","female","18","Australia","19859","24812","imgNWTK/triangle.png","imgNWTK/square.png","imgNWTK/triangle.png","imgNWTK/square.png","noninfo","sub","3.13","{""undefined"":""0""}","","","","","","","","","","","","imgNWTK/triangle.png",""
"26266.399999976158","","","survey-number","94","528558","0.0-16.0","female","18","Australia","19859","24812","imgNWTK/triangle.png","imgNWTK/square.png","imgNWTK/triangle.png","imgNWTK/square.png","noninfo","sub","3.13","{""undefined"":""110""}","","","","","","","","","","","","","imgNWTK/triangle.png"
"3528.100000023842","","","survey-number","95","532091","0.0-17.0","female","18","Australia","19859","24812","imgNWTK/triangle.png","imgNWTK/square.png","imgNWTK/triangle.png","imgNWTK/square.png","noninfo","sub","3.13","{""undefined"":""87""}","","","","","","","","","","","","","imgNWTK/square.png"
"7497","<p style=""text-align:left;"">Great! We are almost at the end of the study... (Please do not close the browser window yet.)</p><p> Your final points balance is 3134, which equals to a bonus payment of $3.13. Please collect your payment from Mathews Building Room 721 (Mon-Fri 9am-5pm); please email amy.x.li@unsw.edu.au at least 24 hours prior to collection so that this is ready for you.</p><p style=""text-align:left;"">To view the debriefing form, please click <a href=""./imgNWTK/debrief_3205.pdf"" target=""_blank"">here</a> to download a copy.</p><p style=""text-align:left;"">Then, <b>please click the below button</b> to confirm that you have received your debrief and to complete the study. Upon clicking ""Finish!"", your SONA credit will be automatically assigned.</p>","0","html-button-response","96","539591","0.0-18.0","female","18","Australia","19859","24812","imgNWTK/triangle.png","imgNWTK/square.png","imgNWTK/triangle.png","imgNWTK/square.png","noninfo","sub","3.13","","","","","","","","","","","","","",""
