"rt","stimulus","button_pressed","trial_type","trial_index","time_elapsed","internal_node_id","gender","age","language","PID","sona_id","subStim","optStim","stim1","stim2","infoCond","optimCond","bonus","responses","banditTrial","choice","cue","feedback","estimateData","leftOption","rightOption","choiceName","leftInput","rightInput","key_press","postQ","singleEst"
"5946","<p>Thank you for signing up to participate in SONA Study 465! <br> During this study, please focus on the experiment and refrain from activities such as:</p>- <b>Switching to other tabs on your browser (this will be monitored via the experiment)</br> - Using your mobile phone/cell phone</br> - Communicating with others</br></br></b><p>This way, you are helping to provide data that is useful for psychological research. We thank you for your cooperation!</p>","0","html-button-response","0","5951","0.0-0.0","male","19","Australia","20931","26127","neither","neither","imgNWTK/KeepItSecret.jpg","imgNWTK/FindOutNow.jpg","info","eq","2.78","","","","","","","","","","","","","",""
"2362","<p>Welcome to the experiment!</p><p>You will now read some instructions about the task. Press the 'Next' button to continue. </p>","0","html-button-response","1","8317","0.0-1.0","male","19","Australia","20931","26127","neither","neither","imgNWTK/KeepItSecret.jpg","imgNWTK/FindOutNow.jpg","info","eq","2.78","","","","","","","","","","","","","",""
"17772","<p> On each trial throughout the experiment you will choose between the options </br><b> Find Out Now </b> and <b> Keep It Secret </b>, as shown below.</p><div><div style= 'float: left; width: 300px; margin: 10px 10px;'><img src= 'imgNWTK/KeepItSecret.jpg'></img></div><div style= 'float: right; width: 300px; margin: 10px 10px;'><img src= 'imgNWTK/FindOutNow.jpg'></img></div></div><br/><br/><br/><br/><br/><br/><br/><br/><br/><br/><br/><p>Each option results in winning points or receiving 0 points.</br>There is a 50% chance of either winning or receiving 0 points.</p><p>You won't receive the outcome until after a <b> 20 second delay</b>. However, selecting the Find Out Now option will allow you to find out about the outcome early, whereas the Keep It Secret option will not. </p>","0","html-button-response","2","26094","0.0-2.0-0.0","male","19","Australia","20931","26127","neither","neither","imgNWTK/KeepItSecret.jpg","imgNWTK/FindOutNow.jpg","info","eq","2.78","","","","","","","","","","","","","",""
"34357","<img src= 'cues/Experiment6.png'></img><p>As seen above, when choosing the <b>'Find Out Now'</b> option, you will receive either a happy face or sad face.</br>The happy face means you will win points after the delay, whereas the sad face means you will receive 0 points.</br></p><p> When choosing the <b> 'Keep it Secret' </b> option you will receive a confused face.</br> This face appears regardless of whether you are going to win points or not. </p>In short, choosing 'Find Out Now' allows you to find out the outcome before you experience it (after the delay).</br></br>","0","html-button-response","3","60454","0.0-2.0-1.0","male","19","Australia","20931","26127","neither","neither","imgNWTK/KeepItSecret.jpg","imgNWTK/FindOutNow.jpg","info","eq","2.78","","","","","","","","","","","","","",""
"8870","<img src= 'cues/winTrials_info.png' width = '1200'></img><p>To reiterate, 50% of the outcomes of each option will be WIN TRIALS, and the other 50% will be NO-WIN TRIALS.","0","html-button-response","4","69329","0.0-2.0-2.0","male","19","Australia","20931","26127","neither","neither","imgNWTK/KeepItSecret.jpg","imgNWTK/FindOutNow.jpg","info","eq","2.78","","","","","","","","","","","","","",""
"11361","<p> There will be <b>four blocks</b> in the experiment.</br>You will be given a short 15 second break between each block.</p><p><b>The points and the options will remain the same between the blocks.</b></p>The blocks are there just to give you a small break.</br></br><p>The points you earn in the task are also equal to <b> actual money</b>.</br> <b>1000 points is equal to $1.</b></p><p>This is the rate you will be paid at the experiment's end.","0","html-button-response","5","80694","0.0-2.0-3.0","male","19","Australia","20931","26127","neither","neither","imgNWTK/KeepItSecret.jpg","imgNWTK/FindOutNow.jpg","info","eq","2.78","","","","","","","","","","","","","",""
"18929","","","survey-multi-choice","6","99646","0.0-2.0-4.0","male","19","Australia","20931","26127","neither","neither","imgNWTK/KeepItSecret.jpg","imgNWTK/FindOutNow.jpg","info","eq","2.78","{""Q0"":""20 Seconds"",""Q1"":""True"",""Q2"":""Equally"",""Q3"":""True""}","","","","","","","","","","","","",""
"5194","<p> Well done, all your answers were correct! <br> The experiment is about to start now. <br/> Click start to continue, or email your researcher <b>(amy.x.li@unsw.edu.au)</b> if you have any questions before starting.","0","html-button-response","7","104860","0.0-3.0","male","19","Australia","20931","26127","neither","neither","imgNWTK/KeepItSecret.jpg","imgNWTK/FindOutNow.jpg","info","eq","2.78","","","","","","","","","","","","","",""
"4045","","","bandit-task-exp6","8","131883","0.0-4.0-0.0","male","19","Australia","20931","26127","neither","neither","imgNWTK/KeepItSecret.jpg","imgNWTK/FindOutNow.jpg","info","eq","2.78","","1","2","2","97","null","imgNWTK/FindOutNow.jpg","imgNWTK/KeepItSecret.jpg","imgNWTK/FindOutNow.jpg","NaN","NaN","","",""
"3754","","","bandit-task-exp6","9","158287","0.0-4.0-0.1","male","19","Australia","20931","26127","neither","neither","imgNWTK/KeepItSecret.jpg","imgNWTK/FindOutNow.jpg","info","eq","2.78","","2","1","1","96","null","imgNWTK/KeepItSecret.jpg","imgNWTK/FindOutNow.jpg","imgNWTK/KeepItSecret.jpg","NaN","NaN","","",""
"2381","","","bandit-task-exp6","10","182946","0.0-4.0-0.2","male","19","Australia","20931","26127","neither","neither","imgNWTK/KeepItSecret.jpg","imgNWTK/FindOutNow.jpg","info","eq","2.78","","3","2","2","102","null","imgNWTK/KeepItSecret.jpg","imgNWTK/FindOutNow.jpg","imgNWTK/FindOutNow.jpg","NaN","NaN","","",""
"2575","","","bandit-task-exp6","11","207804","0.0-4.0-0.3","male","19","Australia","20931","26127","neither","neither","imgNWTK/KeepItSecret.jpg","imgNWTK/FindOutNow.jpg","info","eq","2.78","","4","2","1","0","null","imgNWTK/FindOutNow.jpg","imgNWTK/KeepItSecret.jpg","imgNWTK/FindOutNow.jpg","NaN","NaN","","",""
"1072","","","bandit-task-exp6","12","231064","0.0-4.0-0.4","male","19","Australia","20931","26127","neither","neither","imgNWTK/KeepItSecret.jpg","imgNWTK/FindOutNow.jpg","info","eq","2.78","","5","2","1","0","null","imgNWTK/KeepItSecret.jpg","imgNWTK/FindOutNow.jpg","imgNWTK/FindOutNow.jpg","NaN","NaN","","",""
"1379","","","bandit-task-exp6","13","255126","0.0-4.0-0.5","male","19","Australia","20931","26127","neither","neither","imgNWTK/KeepItSecret.jpg","imgNWTK/FindOutNow.jpg","info","eq","2.78","","6","1","2","0","null","imgNWTK/FindOutNow.jpg","imgNWTK/KeepItSecret.jpg","imgNWTK/KeepItSecret.jpg","NaN","NaN","","",""
"1523","","","bandit-task-exp6","14","279239","0.0-4.0-0.6","male","19","Australia","20931","26127","neither","neither","imgNWTK/KeepItSecret.jpg","imgNWTK/FindOutNow.jpg","info","eq","2.78","","7","2","1","0","null","imgNWTK/FindOutNow.jpg","imgNWTK/KeepItSecret.jpg","imgNWTK/FindOutNow.jpg","NaN","NaN","","",""
"1107","","","bandit-task-exp6","15","303747","0.0-4.0-0.7","male","19","Australia","20931","26127","neither","neither","imgNWTK/KeepItSecret.jpg","imgNWTK/FindOutNow.jpg","info","eq","2.78","","8","2","1","0","null","imgNWTK/KeepItSecret.jpg","imgNWTK/FindOutNow.jpg","imgNWTK/FindOutNow.jpg","NaN","NaN","","",""
"1702","","","bandit-task-exp6","16","327377","0.0-4.0-0.8","male","19","Australia","20931","26127","neither","neither","imgNWTK/KeepItSecret.jpg","imgNWTK/FindOutNow.jpg","info","eq","2.78","","9","2","1","0","null","imgNWTK/FindOutNow.jpg","imgNWTK/KeepItSecret.jpg","imgNWTK/FindOutNow.jpg","NaN","NaN","","",""
"1557","","","bandit-task-exp6","17","351072","0.0-4.0-0.9","male","19","Australia","20931","26127","neither","neither","imgNWTK/KeepItSecret.jpg","imgNWTK/FindOutNow.jpg","info","eq","2.78","","10","2","1","0","null","imgNWTK/KeepItSecret.jpg","imgNWTK/FindOutNow.jpg","imgNWTK/FindOutNow.jpg","NaN","NaN","","",""
"999","","","bandit-task-exp6","18","374167","0.0-4.0-0.10","male","19","Australia","20931","26127","neither","neither","imgNWTK/KeepItSecret.jpg","imgNWTK/FindOutNow.jpg","info","eq","2.78","","11","2","2","97","null","imgNWTK/FindOutNow.jpg","imgNWTK/KeepItSecret.jpg","imgNWTK/FindOutNow.jpg","NaN","NaN","","",""
"1321","","","bandit-task-exp6","19","397757","0.0-4.0-0.11","male","19","Australia","20931","26127","neither","neither","imgNWTK/KeepItSecret.jpg","imgNWTK/FindOutNow.jpg","info","eq","2.78","","12","2","2","106","null","imgNWTK/FindOutNow.jpg","imgNWTK/KeepItSecret.jpg","imgNWTK/FindOutNow.jpg","NaN","NaN","","",""
"1323","","","bandit-task-exp6","20","421683","0.0-4.0-0.12","male","19","Australia","20931","26127","neither","neither","imgNWTK/KeepItSecret.jpg","imgNWTK/FindOutNow.jpg","info","eq","2.78","","13","2","2","103","null","imgNWTK/KeepItSecret.jpg","imgNWTK/FindOutNow.jpg","imgNWTK/FindOutNow.jpg","NaN","NaN","","",""
"1373","","","bandit-task-exp6","21","447283","0.0-4.0-0.13","male","19","Australia","20931","26127","neither","neither","imgNWTK/KeepItSecret.jpg","imgNWTK/FindOutNow.jpg","info","eq","2.78","","14","2","1","0","null","imgNWTK/KeepItSecret.jpg","imgNWTK/FindOutNow.jpg","imgNWTK/FindOutNow.jpg","NaN","NaN","","",""
"3218","","","bandit-task-exp6","22","477429","0.0-4.0-0.14","male","19","Australia","20931","26127","neither","neither","imgNWTK/KeepItSecret.jpg","imgNWTK/FindOutNow.jpg","info","eq","2.78","","15","1","2","0","null","imgNWTK/FindOutNow.jpg","imgNWTK/KeepItSecret.jpg","imgNWTK/KeepItSecret.jpg","NaN","NaN","","",""
"null","<p><b> Congratulations, you have finished this block. </b> </p><p>Please take a short break before moving onto the next block.</p><p>The next block will start after a 15 second break.</p><b>Remember, the point rewards are the same between blocks","","html-keyboard-response","23","492441","0.0-5.0","male","19","Australia","20931","26127","neither","neither","imgNWTK/KeepItSecret.jpg","imgNWTK/FindOutNow.jpg","info","eq","2.78","","","","","","","","","","","","null","",""
"2342","","","bandit-task-exp6","24","525564","0.0-6.0-0.0","male","19","Australia","20931","26127","neither","neither","imgNWTK/KeepItSecret.jpg","imgNWTK/FindOutNow.jpg","info","eq","2.78","","16","2","1","0","null","imgNWTK/KeepItSecret.jpg","imgNWTK/FindOutNow.jpg","imgNWTK/FindOutNow.jpg","NaN","NaN","","",""
"1350","","","bandit-task-exp6","25","548807","0.0-6.0-0.1","male","19","Australia","20931","26127","neither","neither","imgNWTK/KeepItSecret.jpg","imgNWTK/FindOutNow.jpg","info","eq","2.78","","17","2","1","0","null","imgNWTK/KeepItSecret.jpg","imgNWTK/FindOutNow.jpg","imgNWTK/FindOutNow.jpg","NaN","NaN","","",""
"1449","","","bandit-task-exp6","26","575054","0.0-6.0-0.2","male","19","Australia","20931","26127","neither","neither","imgNWTK/KeepItSecret.jpg","imgNWTK/FindOutNow.jpg","info","eq","2.78","","18","1","1","90","null","imgNWTK/FindOutNow.jpg","imgNWTK/KeepItSecret.jpg","imgNWTK/KeepItSecret.jpg","NaN","NaN","","",""
"950","","","bandit-task-exp6","27","597459","0.0-6.0-0.3","male","19","Australia","20931","26127","neither","neither","imgNWTK/KeepItSecret.jpg","imgNWTK/FindOutNow.jpg","info","eq","2.78","","19","1","2","0","null","imgNWTK/KeepItSecret.jpg","imgNWTK/FindOutNow.jpg","imgNWTK/KeepItSecret.jpg","NaN","NaN","","",""
"926","","","bandit-task-exp6","28","624349","0.0-6.0-0.4","male","19","Australia","20931","26127","neither","neither","imgNWTK/KeepItSecret.jpg","imgNWTK/FindOutNow.jpg","info","eq","2.78","","20","2","2","93","null","imgNWTK/KeepItSecret.jpg","imgNWTK/FindOutNow.jpg","imgNWTK/FindOutNow.jpg","NaN","NaN","","",""
"1132","","","bandit-task-exp6","29","647587","0.0-6.0-0.5","male","19","Australia","20931","26127","neither","neither","imgNWTK/KeepItSecret.jpg","imgNWTK/FindOutNow.jpg","info","eq","2.78","","21","2","1","0","null","imgNWTK/KeepItSecret.jpg","imgNWTK/FindOutNow.jpg","imgNWTK/FindOutNow.jpg","NaN","NaN","","",""
"2065","","","bandit-task-exp6","30","673735","0.0-6.0-0.6","male","19","Australia","20931","26127","neither","neither","imgNWTK/KeepItSecret.jpg","imgNWTK/FindOutNow.jpg","info","eq","2.78","","22","2","2","90","null","imgNWTK/KeepItSecret.jpg","imgNWTK/FindOutNow.jpg","imgNWTK/FindOutNow.jpg","NaN","NaN","","",""
"1234","","","bandit-task-exp6","31","699368","0.0-6.0-0.7","male","19","Australia","20931","26127","neither","neither","imgNWTK/KeepItSecret.jpg","imgNWTK/FindOutNow.jpg","info","eq","2.78","","23","1","1","109","null","imgNWTK/FindOutNow.jpg","imgNWTK/KeepItSecret.jpg","imgNWTK/KeepItSecret.jpg","NaN","NaN","","",""
"1330","","","bandit-task-exp6","32","723286","0.0-6.0-0.8","male","19","Australia","20931","26127","neither","neither","imgNWTK/KeepItSecret.jpg","imgNWTK/FindOutNow.jpg","info","eq","2.78","","24","2","1","0","null","imgNWTK/KeepItSecret.jpg","imgNWTK/FindOutNow.jpg","imgNWTK/FindOutNow.jpg","NaN","NaN","","",""
"4974","","","bandit-task-exp6","33","750898","0.0-6.0-0.9","male","19","Australia","20931","26127","neither","neither","imgNWTK/KeepItSecret.jpg","imgNWTK/FindOutNow.jpg","info","eq","2.78","","25","2","1","0","null","imgNWTK/FindOutNow.jpg","imgNWTK/KeepItSecret.jpg","imgNWTK/FindOutNow.jpg","NaN","NaN","","",""
"1322","","","bandit-task-exp6","34","778670","0.0-6.0-0.10","male","19","Australia","20931","26127","neither","neither","imgNWTK/KeepItSecret.jpg","imgNWTK/FindOutNow.jpg","info","eq","2.78","","26","1","1","102","null","imgNWTK/FindOutNow.jpg","imgNWTK/KeepItSecret.jpg","imgNWTK/KeepItSecret.jpg","NaN","NaN","","",""
"1078","","","bandit-task-exp6","35","802365","0.0-6.0-0.11","male","19","Australia","20931","26127","neither","neither","imgNWTK/KeepItSecret.jpg","imgNWTK/FindOutNow.jpg","info","eq","2.78","","27","2","2","93","null","imgNWTK/FindOutNow.jpg","imgNWTK/KeepItSecret.jpg","imgNWTK/FindOutNow.jpg","NaN","NaN","","",""
"1249","","","bandit-task-exp6","36","825198","0.0-6.0-0.12","male","19","Australia","20931","26127","neither","neither","imgNWTK/KeepItSecret.jpg","imgNWTK/FindOutNow.jpg","info","eq","2.78","","28","2","1","0","null","imgNWTK/KeepItSecret.jpg","imgNWTK/FindOutNow.jpg","imgNWTK/FindOutNow.jpg","NaN","NaN","","",""
"1106","","","bandit-task-exp6","37","849221","0.0-6.0-0.13","male","19","Australia","20931","26127","neither","neither","imgNWTK/KeepItSecret.jpg","imgNWTK/FindOutNow.jpg","info","eq","2.78","","29","2","2","99","null","imgNWTK/FindOutNow.jpg","imgNWTK/KeepItSecret.jpg","imgNWTK/FindOutNow.jpg","NaN","NaN","","",""
"1102","","","bandit-task-exp6","38","878401","0.0-6.0-0.14","male","19","Australia","20931","26127","neither","neither","imgNWTK/KeepItSecret.jpg","imgNWTK/FindOutNow.jpg","info","eq","2.78","","30","1","1","99","null","imgNWTK/KeepItSecret.jpg","imgNWTK/FindOutNow.jpg","imgNWTK/KeepItSecret.jpg","NaN","NaN","","",""
"null","<p><b> Congratulations, you have finished this block. </b> </p><p>Please take a short break before moving onto the next block.</p><p>The next block will start after a 15 second break.</p><b>Remember, the point rewards are the same between blocks","","html-keyboard-response","39","893403","0.0-7.0","male","19","Australia","20931","26127","neither","neither","imgNWTK/KeepItSecret.jpg","imgNWTK/FindOutNow.jpg","info","eq","2.78","","","","","","","","","","","","null","",""
"2352","","","bandit-task-exp6","40","939963","0.0-8.0-0.0","male","19","Australia","20931","26127","neither","neither","imgNWTK/KeepItSecret.jpg","imgNWTK/FindOutNow.jpg","info","eq","2.78","","31","1","1","106","null","imgNWTK/FindOutNow.jpg","imgNWTK/KeepItSecret.jpg","imgNWTK/KeepItSecret.jpg","NaN","NaN","","",""
"3104","","","bandit-task-exp6","41","965266","0.0-8.0-0.1","male","19","Australia","20931","26127","neither","neither","imgNWTK/KeepItSecret.jpg","imgNWTK/FindOutNow.jpg","info","eq","2.78","","32","2","1","0","null","imgNWTK/FindOutNow.jpg","imgNWTK/KeepItSecret.jpg","imgNWTK/FindOutNow.jpg","NaN","NaN","","",""
"4123","","","bandit-task-exp6","42","991284","0.0-8.0-0.2","male","19","Australia","20931","26127","neither","neither","imgNWTK/KeepItSecret.jpg","imgNWTK/FindOutNow.jpg","info","eq","2.78","","33","2","1","0","null","imgNWTK/FindOutNow.jpg","imgNWTK/KeepItSecret.jpg","imgNWTK/FindOutNow.jpg","NaN","NaN","","",""
"1162","","","bandit-task-exp6","43","1031361","0.0-8.0-0.3","male","19","Australia","20931","26127","neither","neither","imgNWTK/KeepItSecret.jpg","imgNWTK/FindOutNow.jpg","info","eq","2.78","","34","1","2","0","null","imgNWTK/KeepItSecret.jpg","imgNWTK/FindOutNow.jpg","imgNWTK/KeepItSecret.jpg","NaN","NaN","","",""
"1442","","","bandit-task-exp6","44","1056427","0.0-8.0-0.4","male","19","Australia","20931","26127","neither","neither","imgNWTK/KeepItSecret.jpg","imgNWTK/FindOutNow.jpg","info","eq","2.78","","35","2","2","109","null","imgNWTK/FindOutNow.jpg","imgNWTK/KeepItSecret.jpg","imgNWTK/FindOutNow.jpg","NaN","NaN","","",""
"957","","","bandit-task-exp6","45","1100157","0.0-8.0-0.5","male","19","Australia","20931","26127","neither","neither","imgNWTK/KeepItSecret.jpg","imgNWTK/FindOutNow.jpg","info","eq","2.78","","36","2","2","100","null","imgNWTK/KeepItSecret.jpg","imgNWTK/FindOutNow.jpg","imgNWTK/FindOutNow.jpg","NaN","NaN","","",""
"1885","","","bandit-task-exp6","46","1125021","0.0-8.0-0.6","male","19","Australia","20931","26127","neither","neither","imgNWTK/KeepItSecret.jpg","imgNWTK/FindOutNow.jpg","info","eq","2.78","","37","1","1","108","null","imgNWTK/FindOutNow.jpg","imgNWTK/KeepItSecret.jpg","imgNWTK/KeepItSecret.jpg","NaN","NaN","","",""
"1274","","","bandit-task-exp6","47","1148774","0.0-8.0-0.7","male","19","Australia","20931","26127","neither","neither","imgNWTK/KeepItSecret.jpg","imgNWTK/FindOutNow.jpg","info","eq","2.78","","38","2","2","107","null","imgNWTK/FindOutNow.jpg","imgNWTK/KeepItSecret.jpg","imgNWTK/FindOutNow.jpg","NaN","NaN","","",""
"942","","","bandit-task-exp6","48","1172632","0.0-8.0-0.8","male","19","Australia","20931","26127","neither","neither","imgNWTK/KeepItSecret.jpg","imgNWTK/FindOutNow.jpg","info","eq","2.78","","39","1","2","0","null","imgNWTK/FindOutNow.jpg","imgNWTK/KeepItSecret.jpg","imgNWTK/KeepItSecret.jpg","NaN","NaN","","",""
"1491","","","bandit-task-exp6","49","1196230","0.0-8.0-0.9","male","19","Australia","20931","26127","neither","neither","imgNWTK/KeepItSecret.jpg","imgNWTK/FindOutNow.jpg","info","eq","2.78","","40","2","2","92","null","imgNWTK/KeepItSecret.jpg","imgNWTK/FindOutNow.jpg","imgNWTK/FindOutNow.jpg","NaN","NaN","","",""
"851","","","bandit-task-exp6","50","1225474","0.0-8.0-0.10","male","19","Australia","20931","26127","neither","neither","imgNWTK/KeepItSecret.jpg","imgNWTK/FindOutNow.jpg","info","eq","2.78","","41","2","2","105","null","imgNWTK/FindOutNow.jpg","imgNWTK/KeepItSecret.jpg","imgNWTK/FindOutNow.jpg","NaN","NaN","","",""
"1840","","","bandit-task-exp6","51","1264072","0.0-8.0-0.11","male","19","Australia","20931","26127","neither","neither","imgNWTK/KeepItSecret.jpg","imgNWTK/FindOutNow.jpg","info","eq","2.78","","42","1","1","102","null","imgNWTK/FindOutNow.jpg","imgNWTK/KeepItSecret.jpg","imgNWTK/KeepItSecret.jpg","NaN","NaN","","",""
"2364","","","bandit-task-exp6","52","1288449","0.0-8.0-0.12","male","19","Australia","20931","26127","neither","neither","imgNWTK/KeepItSecret.jpg","imgNWTK/FindOutNow.jpg","info","eq","2.78","","43","2","1","0","null","imgNWTK/KeepItSecret.jpg","imgNWTK/FindOutNow.jpg","imgNWTK/FindOutNow.jpg","NaN","NaN","","",""
"655","","","bandit-task-exp6","53","1347678","0.0-8.0-0.13","male","19","Australia","20931","26127","neither","neither","imgNWTK/KeepItSecret.jpg","imgNWTK/FindOutNow.jpg","info","eq","2.78","","44","2","2","110","null","imgNWTK/KeepItSecret.jpg","imgNWTK/FindOutNow.jpg","imgNWTK/FindOutNow.jpg","NaN","NaN","","",""
"1174","","","bandit-task-exp6","54","1388298","0.0-8.0-0.14","male","19","Australia","20931","26127","neither","neither","imgNWTK/KeepItSecret.jpg","imgNWTK/FindOutNow.jpg","info","eq","2.78","","45","2","1","0","null","imgNWTK/FindOutNow.jpg","imgNWTK/KeepItSecret.jpg","imgNWTK/FindOutNow.jpg","NaN","NaN","","",""
"null","<p><b> Congratulations, you have finished this block. </b> </p><p>Please take a short break before moving onto the next block.</p><p>The next block will start after a 15 second break.</p><b>Remember, the point rewards are the same between blocks","","html-keyboard-response","55","1403308","0.0-9.0","male","19","Australia","20931","26127","neither","neither","imgNWTK/KeepItSecret.jpg","imgNWTK/FindOutNow.jpg","info","eq","2.78","","","","","","","","","","","","null","",""
"33299","","","bandit-task-exp6","56","1458714","0.0-10.0-0.0","male","19","Australia","20931","26127","neither","neither","imgNWTK/KeepItSecret.jpg","imgNWTK/FindOutNow.jpg","info","eq","2.78","","46","2","1","0","null","imgNWTK/KeepItSecret.jpg","imgNWTK/FindOutNow.jpg","imgNWTK/FindOutNow.jpg","94","101","","",""
"29157","","","bandit-task-exp6","57","1509747","0.0-10.0-0.1","male","19","Australia","20931","26127","neither","neither","imgNWTK/KeepItSecret.jpg","imgNWTK/FindOutNow.jpg","info","eq","2.78","","47","2","1","0","null","imgNWTK/FindOutNow.jpg","imgNWTK/KeepItSecret.jpg","imgNWTK/FindOutNow.jpg","94","102","","",""
"7518","","","bandit-task-exp6","58","1539235","0.0-10.0-0.2","male","19","Australia","20931","26127","neither","neither","imgNWTK/KeepItSecret.jpg","imgNWTK/FindOutNow.jpg","info","eq","2.78","","48","2","1","0","null","imgNWTK/KeepItSecret.jpg","imgNWTK/FindOutNow.jpg","imgNWTK/FindOutNow.jpg","99","103","","",""
"6568","","","bandit-task-exp6","59","1569865","0.0-10.0-0.3","male","19","Australia","20931","26127","neither","neither","imgNWTK/KeepItSecret.jpg","imgNWTK/FindOutNow.jpg","info","eq","2.78","","49","1","2","0","null","imgNWTK/KeepItSecret.jpg","imgNWTK/FindOutNow.jpg","imgNWTK/KeepItSecret.jpg","102","94","","",""
"14482","","","bandit-task-exp6","60","1607012","0.0-10.0-0.4","male","19","Australia","20931","26127","neither","neither","imgNWTK/KeepItSecret.jpg","imgNWTK/FindOutNow.jpg","info","eq","2.78","","50","1","2","0","null","imgNWTK/KeepItSecret.jpg","imgNWTK/FindOutNow.jpg","imgNWTK/KeepItSecret.jpg","102","97","","",""
"13572","","","bandit-task-exp6","61","1650036","0.0-10.0-0.5","male","19","Australia","20931","26127","neither","neither","imgNWTK/KeepItSecret.jpg","imgNWTK/FindOutNow.jpg","info","eq","2.78","","51","2","2","95","null","imgNWTK/FindOutNow.jpg","imgNWTK/KeepItSecret.jpg","imgNWTK/FindOutNow.jpg","96","105","","",""
"8294","","","bandit-task-exp6","62","1706380","0.0-10.0-0.6","male","19","Australia","20931","26127","neither","neither","imgNWTK/KeepItSecret.jpg","imgNWTK/FindOutNow.jpg","info","eq","2.78","","52","2","2","91","null","imgNWTK/KeepItSecret.jpg","imgNWTK/FindOutNow.jpg","imgNWTK/FindOutNow.jpg","105","97","","",""
"8466","","","bandit-task-exp6","63","1740622","0.0-10.0-0.7","male","19","Australia","20931","26127","neither","neither","imgNWTK/KeepItSecret.jpg","imgNWTK/FindOutNow.jpg","info","eq","2.78","","53","1","1","99","null","imgNWTK/KeepItSecret.jpg","imgNWTK/FindOutNow.jpg","imgNWTK/KeepItSecret.jpg","101","105","","",""
"6358","","","bandit-task-exp6","64","1773863","0.0-10.0-0.8","male","19","Australia","20931","26127","neither","neither","imgNWTK/KeepItSecret.jpg","imgNWTK/FindOutNow.jpg","info","eq","2.78","","54","2","1","0","null","imgNWTK/FindOutNow.jpg","imgNWTK/KeepItSecret.jpg","imgNWTK/FindOutNow.jpg","102","105","","",""
"9498","","","bandit-task-exp6","65","1810059","0.0-10.0-0.9","male","19","Australia","20931","26127","neither","neither","imgNWTK/KeepItSecret.jpg","imgNWTK/FindOutNow.jpg","info","eq","2.78","","55","1","2","0","null","imgNWTK/FindOutNow.jpg","imgNWTK/KeepItSecret.jpg","imgNWTK/KeepItSecret.jpg","99","92","","",""
"6263","","","bandit-task-exp6","66","1843357","0.0-10.0-0.10","male","19","Australia","20931","26127","neither","neither","imgNWTK/KeepItSecret.jpg","imgNWTK/FindOutNow.jpg","info","eq","2.78","","56","2","1","0","null","imgNWTK/FindOutNow.jpg","imgNWTK/KeepItSecret.jpg","imgNWTK/FindOutNow.jpg","104","99","","",""
"10846","","","bandit-task-exp6","67","1880637","0.0-10.0-0.11","male","19","Australia","20931","26127","neither","neither","imgNWTK/KeepItSecret.jpg","imgNWTK/FindOutNow.jpg","info","eq","2.78","","57","2","1","0","null","imgNWTK/FindOutNow.jpg","imgNWTK/KeepItSecret.jpg","imgNWTK/FindOutNow.jpg","106","106","","",""
"13011","","","bandit-task-exp6","68","1915567","0.0-10.0-0.12","male","19","Australia","20931","26127","neither","neither","imgNWTK/KeepItSecret.jpg","imgNWTK/FindOutNow.jpg","info","eq","2.78","","58","2","2","94","null","imgNWTK/KeepItSecret.jpg","imgNWTK/FindOutNow.jpg","imgNWTK/FindOutNow.jpg","99","103","","",""
"8725","","","bandit-task-exp6","69","1947553","0.0-10.0-0.13","male","19","Australia","20931","26127","neither","neither","imgNWTK/KeepItSecret.jpg","imgNWTK/FindOutNow.jpg","info","eq","2.78","","59","2","1","0","null","imgNWTK/FindOutNow.jpg","imgNWTK/KeepItSecret.jpg","imgNWTK/FindOutNow.jpg","94","90","","",""
"6906","","","bandit-task-exp6","70","1993164","0.0-10.0-0.14","male","19","Australia","20931","26127","neither","neither","imgNWTK/KeepItSecret.jpg","imgNWTK/FindOutNow.jpg","info","eq","2.78","","60","1","1","90","null","imgNWTK/KeepItSecret.jpg","imgNWTK/FindOutNow.jpg","imgNWTK/KeepItSecret.jpg","108","108","","",""
"4079","<p> Congratulations, you have finished the main part of the experiment. </p><p>Before you finish, we have a few short questions about the options and outcomes you saw in the task.</p>","0","html-button-response","71","1997247","0.0-11.0","male","19","Australia","20931","26127","neither","neither","imgNWTK/KeepItSecret.jpg","imgNWTK/FindOutNow.jpg","info","eq","2.78","","","","","","","","","","","","","",""
"16029","<p><b>Now, imagine that you clicked on the below button for another 10 trials (this includes <i> BOTH WIN and NO-WIN trials</i>).</p> <img src= 'imgNWTK/KeepItSecret.jpg'></img></br></br> <p><b>Please type the reward (number of points) you would expect to receive on every trial.</br> Click start to begin.</p>","0","html-button-response","72","2013279","0.0-12.0","male","19","Australia","20931","26127","neither","neither","imgNWTK/KeepItSecret.jpg","imgNWTK/FindOutNow.jpg","info","eq","2.78","","","","","","","","","","","","","",""
"14307.5","","","survey-number","73","2027602","0.0-13.0-0.0","male","19","Australia","20931","26127","neither","neither","imgNWTK/KeepItSecret.jpg","imgNWTK/FindOutNow.jpg","info","eq","2.78","{""undefined"":""94""}","","","","","","","","","","","","imgNWTK/KeepItSecret.jpg",""
"4002","","","survey-number","74","2031614","0.0-13.0-0.1","male","19","Australia","20931","26127","neither","neither","imgNWTK/KeepItSecret.jpg","imgNWTK/FindOutNow.jpg","info","eq","2.78","{""undefined"":""102""}","","","","","","","","","","","","imgNWTK/KeepItSecret.jpg",""
"1975","","","survey-number","75","2033596","0.0-13.0-0.2","male","19","Australia","20931","26127","neither","neither","imgNWTK/KeepItSecret.jpg","imgNWTK/FindOutNow.jpg","info","eq","2.78","{""undefined"":""0""}","","","","","","","","","","","","imgNWTK/KeepItSecret.jpg",""
"1194.5","","","survey-number","76","2034797","0.0-13.0-0.3","male","19","Australia","20931","26127","neither","neither","imgNWTK/KeepItSecret.jpg","imgNWTK/FindOutNow.jpg","info","eq","2.78","{""undefined"":""0""}","","","","","","","","","","","","imgNWTK/KeepItSecret.jpg",""
"1877.7999999821186","","","survey-number","77","2036682","0.0-13.0-0.4","male","19","Australia","20931","26127","neither","neither","imgNWTK/KeepItSecret.jpg","imgNWTK/FindOutNow.jpg","info","eq","2.78","{""undefined"":""0""}","","","","","","","","","","","","imgNWTK/KeepItSecret.jpg",""
"3282.0999999940395","","","survey-number","78","2039969","0.0-13.0-0.5","male","19","Australia","20931","26127","neither","neither","imgNWTK/KeepItSecret.jpg","imgNWTK/FindOutNow.jpg","info","eq","2.78","{""undefined"":""93""}","","","","","","","","","","","","imgNWTK/KeepItSecret.jpg",""
"993.7999999821186","","","survey-number","79","2040971","0.0-13.0-0.6","male","19","Australia","20931","26127","neither","neither","imgNWTK/KeepItSecret.jpg","imgNWTK/FindOutNow.jpg","info","eq","2.78","{""undefined"":""0""}","","","","","","","","","","","","imgNWTK/KeepItSecret.jpg",""
"1322.4000000059605","","","survey-number","80","2042300","0.0-13.0-0.7","male","19","Australia","20931","26127","neither","neither","imgNWTK/KeepItSecret.jpg","imgNWTK/FindOutNow.jpg","info","eq","2.78","{""undefined"":""0""}","","","","","","","","","","","","imgNWTK/KeepItSecret.jpg",""
"3503.800000011921","","","survey-number","81","2045812","0.0-13.0-0.8","male","19","Australia","20931","26127","neither","neither","imgNWTK/KeepItSecret.jpg","imgNWTK/FindOutNow.jpg","info","eq","2.78","{""undefined"":""103""}","","","","","","","","","","","","imgNWTK/KeepItSecret.jpg",""
"3209","","","survey-number","82","2049029","0.0-13.0-0.9","male","19","Australia","20931","26127","neither","neither","imgNWTK/KeepItSecret.jpg","imgNWTK/FindOutNow.jpg","info","eq","2.78","{""undefined"":""0""}","","","","","","","","","","","","imgNWTK/KeepItSecret.jpg",""
"2600","<p><b>Imagine that you clicked on the below button for another 10 trials (this includes <i> both WIN and NO-WIN trials</i>).</p> <img src= 'imgNWTK/FindOutNow.jpg'></img></br></br> <p><b>Please type the reward (number of points) you would expect to receive on every trial.</br> Click start to begin.</p>","0","html-button-response","83","2051632","0.0-14.0","male","19","Australia","20931","26127","neither","neither","imgNWTK/KeepItSecret.jpg","imgNWTK/FindOutNow.jpg","info","eq","2.78","","","","","","","","","","","","","",""
"2658.4000000059605","","","survey-number","84","2054298","0.0-15.0-0.0","male","19","Australia","20931","26127","neither","neither","imgNWTK/KeepItSecret.jpg","imgNWTK/FindOutNow.jpg","info","eq","2.78","{""undefined"":""0""}","","","","","","","","","","","","imgNWTK/FindOutNow.jpg",""
"954.2999999821186","","","survey-number","85","2055255","0.0-15.0-0.1","male","19","Australia","20931","26127","neither","neither","imgNWTK/KeepItSecret.jpg","imgNWTK/FindOutNow.jpg","info","eq","2.78","{""undefined"":""0""}","","","","","","","","","","","","imgNWTK/FindOutNow.jpg",""
"7131.799999982119","","","survey-number","86","2062390","0.0-15.0-0.2","male","19","Australia","20931","26127","neither","neither","imgNWTK/KeepItSecret.jpg","imgNWTK/FindOutNow.jpg","info","eq","2.78","{""undefined"":""104""}","","","","","","","","","","","","imgNWTK/FindOutNow.jpg",""
"1077.5999999940395","","","survey-number","87","2063474","0.0-15.0-0.3","male","19","Australia","20931","26127","neither","neither","imgNWTK/KeepItSecret.jpg","imgNWTK/FindOutNow.jpg","info","eq","2.78","{""undefined"":""0""}","","","","","","","","","","","","imgNWTK/FindOutNow.jpg",""
"3642.100000023842","","","survey-number","88","2067120","0.0-15.0-0.4","male","19","Australia","20931","26127","neither","neither","imgNWTK/KeepItSecret.jpg","imgNWTK/FindOutNow.jpg","info","eq","2.78","{""undefined"":""96""}","","","","","","","","","","","","imgNWTK/FindOutNow.jpg",""
"2593.2999999821186","","","survey-number","89","2069721","0.0-15.0-0.5","male","19","Australia","20931","26127","neither","neither","imgNWTK/KeepItSecret.jpg","imgNWTK/FindOutNow.jpg","info","eq","2.78","{""undefined"":""94""}","","","","","","","","","","","","imgNWTK/FindOutNow.jpg",""
"856.0999999940395","","","survey-number","90","2070585","0.0-15.0-0.6","male","19","Australia","20931","26127","neither","neither","imgNWTK/KeepItSecret.jpg","imgNWTK/FindOutNow.jpg","info","eq","2.78","{""undefined"":""0""}","","","","","","","","","","","","imgNWTK/FindOutNow.jpg",""
"3675.100000023842","","","survey-number","91","2074265","0.0-15.0-0.7","male","19","Australia","20931","26127","neither","neither","imgNWTK/KeepItSecret.jpg","imgNWTK/FindOutNow.jpg","info","eq","2.78","{""undefined"":""101""}","","","","","","","","","","","","imgNWTK/FindOutNow.jpg",""
"1149.2000000178814","","","survey-number","92","2075423","0.0-15.0-0.8","male","19","Australia","20931","26127","neither","neither","imgNWTK/KeepItSecret.jpg","imgNWTK/FindOutNow.jpg","info","eq","2.78","{""undefined"":""0""}","","","","","","","","","","","","imgNWTK/FindOutNow.jpg",""
"619.2999999821186","","","survey-number","93","2076050","0.0-15.0-0.9","male","19","Australia","20931","26127","neither","neither","imgNWTK/KeepItSecret.jpg","imgNWTK/FindOutNow.jpg","info","eq","2.78","{""undefined"":""0""}","","","","","","","","","","","","imgNWTK/FindOutNow.jpg",""
"19815.30000001192","","","survey-number","94","2095897","0.0-16.0","male","19","Australia","20931","26127","neither","neither","imgNWTK/KeepItSecret.jpg","imgNWTK/FindOutNow.jpg","info","eq","2.78","{""undefined"":""97""}","","","","","","","","","","","","","imgNWTK/FindOutNow.jpg"
"3916.2999999821186","","","survey-number","95","2099822","0.0-17.0","male","19","Australia","20931","26127","neither","neither","imgNWTK/KeepItSecret.jpg","imgNWTK/FindOutNow.jpg","info","eq","2.78","{""undefined"":""97""}","","","","","","","","","","","","","imgNWTK/KeepItSecret.jpg"
"33337","<p style=""text-align:left;"">Great! We are almost at the end of the study... (Please do not close the browser window yet.)</p><p> Your final points balance is 2784, which equals to a bonus payment of $2.78. The payment can be collected from MAT721; please email amy.x.li@unsw.edu.au at least 24 hours prior to collection so that this is ready for you.</p><p style=""text-align:left;"">To view the debriefing form, please click <a href=""./imgNWTK/debrief_3205.pdf"" target=""_blank"">here</a> to download a copy.</p><p style=""text-align:left;"">Then, <b>please click the below button</b> to confirm that you have received your debrief and to complete the study. Upon clicking ""Finish!"", your SONA credit will be automatically assigned.</p>","0","html-button-response","96","2133163","0.0-18.0","male","19","Australia","20931","26127","neither","neither","imgNWTK/KeepItSecret.jpg","imgNWTK/FindOutNow.jpg","info","eq","2.78","","","","","","","","","","","","","",""
