"rt","stimulus","button_pressed","trial_type","trial_index","time_elapsed","internal_node_id","gender","age","language","PID","sona_id","subStim","optStim","stim1","stim2","infoCond","optimCond","bonus","responses","banditTrial","choice","cue","feedback","estimateData","leftOption","rightOption","choiceName","leftInput","rightInput","key_press","postQ","singleEst"
"7442","<p>Thank you for signing up to participate in SONA Study 465! <br> During this study, please focus on the experiment and refrain from activities such as:</p>- <b>Switching to other tabs on your browser (this will be monitored via the experiment)</br> - Using your mobile phone/cell phone</br> - Communicating with others</br></br></b><p>This way, you are helping to provide data that is useful for psychological research. We thank you for your cooperation!</p>","0","html-button-response","0","7444","0.0-0.0","male","18","Australia","1888","25149","imgNWTK/square.png","imgNWTK/triangle.png","imgNWTK/square.png","imgNWTK/triangle.png","noninfo","sub","3.17","","","","","","","","","","","","","",""
"1912","<p>Welcome to the experiment!</p><p>You will now read some instructions about the task. Press the 'Next' button to continue. </p>","0","html-button-response","1","9356","0.0-1.0","male","18","Australia","1888","25149","imgNWTK/square.png","imgNWTK/triangle.png","imgNWTK/square.png","imgNWTK/triangle.png","noninfo","sub","3.17","","","","","","","","","","","","","",""
"11460","<p> On each trial throughout the experiment you will choose between two options, </br>a <b>Black Square </b> and <b> Black Triangle </b>, as seen below.</p><div><div style= 'float: left; width: 300px; margin: 10px 10px;'><img src= 'imgNWTK/square.png'></img></div><div style= 'float: right; width: 300px; margin: 10px 10px;'><img src= 'imgNWTK/triangle.png'></img></div></div><br/><br/><br/><br/><br/><br/><br/><br/><br/><br/><br/><p>Each option results in winning points or receiving 0 points.</br>There is a 50% chance of either winning or receiving 0 points.</p><p>You won't receive the outcome until after a <b> 20 second delay</b>.</p>","0","html-button-response","2","20817","0.0-2.0-0.0","male","18","Australia","1888","25149","imgNWTK/square.png","imgNWTK/triangle.png","imgNWTK/square.png","imgNWTK/triangle.png","noninfo","sub","3.17","","","","","","","","","","","","","",""
"164809","<img src= 'imgNWTK/NonInfoDiagram.png'></img><p>As seen above, whether you choose the square or triangle, you will receive a coloured circle after the choice. </p> <p>This circle will be on screen for 20 seconds until you win points or receive 0 points.</p><p>The coloured circle depends on which option you chose. </br> In the above example, choosing a triangle leads to a green circle and choosing the square leads to a red circle.</p>Please note: the circles in your task will be different to the above colours.</br></br>","0","html-button-response","3","185628","0.0-2.0-1.0","male","18","Australia","1888","25149","imgNWTK/square.png","imgNWTK/triangle.png","imgNWTK/square.png","imgNWTK/triangle.png","noninfo","sub","3.17","","","","","","","","","","","","","",""
"6798","<img src= 'cues/winTrials_noInfo.png' width = '1200'></img><p>To reiterate, 50% of the outcomes of each option will be WIN TRIALS, and the other 50% will be NO-WIN TRIALS.","0","html-button-response","4","192427","0.0-2.0-2.0","male","18","Australia","1888","25149","imgNWTK/square.png","imgNWTK/triangle.png","imgNWTK/square.png","imgNWTK/triangle.png","noninfo","sub","3.17","","","","","","","","","","","","","",""
"14805","<p> There will be <b>four blocks</b> in the experiment.</br>You will be given a short 15 second break between each block.</p><p><b>The points and the options will remain the same between the blocks.</b></p>The blocks are there just to give you a small break.</br></br></br></br><p>The points you earn in the task are also equal to <b> actual money</b>.</br> <b>1000 points is equal to $1 AUD</b></p><p>This is the rate you will be paid at the experiment's end.","0","html-button-response","5","207232","0.0-2.0-3.0","male","18","Australia","1888","25149","imgNWTK/square.png","imgNWTK/triangle.png","imgNWTK/square.png","imgNWTK/triangle.png","noninfo","sub","3.17","","","","","","","","","","","","","",""
"13209","","","survey-multi-choice","6","220443","0.0-2.0-4.0","male","18","Australia","1888","25149","imgNWTK/square.png","imgNWTK/triangle.png","imgNWTK/square.png","imgNWTK/triangle.png","noninfo","sub","3.17","{""Q0"":""20 Seconds"",""Q1"":""True"",""Q2"":""Equally""}","","","","","","","","","","","","",""
"2944","<p> Well done, all your answers were correct! <br> The experiment is about to start now. <br/> Click start to continue, or email your researcher <b>(amy.x.li@unsw.edu.au)</b> if you have any questions before starting.","0","html-button-response","7","223391","0.0-3.0","male","18","Australia","1888","25149","imgNWTK/square.png","imgNWTK/triangle.png","imgNWTK/square.png","imgNWTK/triangle.png","noninfo","sub","3.17","","","","","","","","","","","","","",""
"2145","","","bandit-task-exp6","8","228362","0.0-4.0-0.0","male","18","Australia","1888","25149","imgNWTK/square.png","imgNWTK/triangle.png","imgNWTK/square.png","imgNWTK/triangle.png","noninfo","sub","3.17","","1","2","2","79","null","imgNWTK/triangle.png","imgNWTK/square.png","imgNWTK/triangle.png","NaN","NaN","","",""
"614","","","bandit-task-exp6","9","231572","0.0-4.0-0.1","male","18","Australia","1888","25149","imgNWTK/square.png","imgNWTK/triangle.png","imgNWTK/square.png","imgNWTK/triangle.png","noninfo","sub","3.17","","2","2","2","84","null","imgNWTK/triangle.png","imgNWTK/square.png","imgNWTK/triangle.png","NaN","NaN","","",""
"341","","","bandit-task-exp6","10","234810","0.0-4.0-0.2","male","18","Australia","1888","25149","imgNWTK/square.png","imgNWTK/triangle.png","imgNWTK/square.png","imgNWTK/triangle.png","noninfo","sub","3.17","","3","1","2","0","null","imgNWTK/square.png","imgNWTK/triangle.png","imgNWTK/square.png","NaN","NaN","","",""
"565","","","bandit-task-exp6","11","238102","0.0-4.0-0.3","male","18","Australia","1888","25149","imgNWTK/square.png","imgNWTK/triangle.png","imgNWTK/square.png","imgNWTK/triangle.png","noninfo","sub","3.17","","4","2","2","86","null","imgNWTK/triangle.png","imgNWTK/square.png","imgNWTK/triangle.png","NaN","NaN","","",""
"984","","","bandit-task-exp6","12","241774","0.0-4.0-0.4","male","18","Australia","1888","25149","imgNWTK/square.png","imgNWTK/triangle.png","imgNWTK/square.png","imgNWTK/triangle.png","noninfo","sub","3.17","","5","2","1","0","null","imgNWTK/triangle.png","imgNWTK/square.png","imgNWTK/triangle.png","NaN","NaN","","",""
"1004","","","bandit-task-exp6","13","245268","0.0-4.0-0.5","male","18","Australia","1888","25149","imgNWTK/square.png","imgNWTK/triangle.png","imgNWTK/square.png","imgNWTK/triangle.png","noninfo","sub","3.17","","6","2","2","70","null","imgNWTK/square.png","imgNWTK/triangle.png","imgNWTK/triangle.png","NaN","NaN","","",""
"571","","","bandit-task-exp6","14","248581","0.0-4.0-0.6","male","18","Australia","1888","25149","imgNWTK/square.png","imgNWTK/triangle.png","imgNWTK/square.png","imgNWTK/triangle.png","noninfo","sub","3.17","","7","2","1","0","null","imgNWTK/square.png","imgNWTK/triangle.png","imgNWTK/triangle.png","NaN","NaN","","",""
"588","","","bandit-task-exp6","15","251891","0.0-4.0-0.7","male","18","Australia","1888","25149","imgNWTK/square.png","imgNWTK/triangle.png","imgNWTK/square.png","imgNWTK/triangle.png","noninfo","sub","3.17","","8","1","2","0","null","imgNWTK/triangle.png","imgNWTK/square.png","imgNWTK/square.png","NaN","NaN","","",""
"512","","","bandit-task-exp6","16","254960","0.0-4.0-0.8","male","18","Australia","1888","25149","imgNWTK/square.png","imgNWTK/triangle.png","imgNWTK/square.png","imgNWTK/triangle.png","noninfo","sub","3.17","","9","1","1","113","null","imgNWTK/square.png","imgNWTK/triangle.png","imgNWTK/square.png","NaN","NaN","","",""
"666","","","bandit-task-exp6","17","258176","0.0-4.0-0.9","male","18","Australia","1888","25149","imgNWTK/square.png","imgNWTK/triangle.png","imgNWTK/square.png","imgNWTK/triangle.png","noninfo","sub","3.17","","10","1","1","119","null","imgNWTK/triangle.png","imgNWTK/square.png","imgNWTK/square.png","NaN","NaN","","",""
"572","","","bandit-task-exp6","18","261410","0.0-4.0-0.10","male","18","Australia","1888","25149","imgNWTK/square.png","imgNWTK/triangle.png","imgNWTK/square.png","imgNWTK/triangle.png","noninfo","sub","3.17","","11","1","1","129","null","imgNWTK/triangle.png","imgNWTK/square.png","imgNWTK/square.png","NaN","NaN","","",""
"832","","","bandit-task-exp6","19","264771","0.0-4.0-0.11","male","18","Australia","1888","25149","imgNWTK/square.png","imgNWTK/triangle.png","imgNWTK/square.png","imgNWTK/triangle.png","noninfo","sub","3.17","","12","1","1","127","null","imgNWTK/square.png","imgNWTK/triangle.png","imgNWTK/square.png","NaN","NaN","","",""
"589","","","bandit-task-exp6","20","268153","0.0-4.0-0.12","male","18","Australia","1888","25149","imgNWTK/square.png","imgNWTK/triangle.png","imgNWTK/square.png","imgNWTK/triangle.png","noninfo","sub","3.17","","13","1","1","127","null","imgNWTK/triangle.png","imgNWTK/square.png","imgNWTK/square.png","NaN","NaN","","",""
"1361","","","bandit-task-exp6","21","272071","0.0-4.0-0.13","male","18","Australia","1888","25149","imgNWTK/square.png","imgNWTK/triangle.png","imgNWTK/square.png","imgNWTK/triangle.png","noninfo","sub","3.17","","14","2","2","89","null","imgNWTK/triangle.png","imgNWTK/square.png","imgNWTK/triangle.png","NaN","NaN","","",""
"564","","","bandit-task-exp6","22","275191","0.0-4.0-0.14","male","18","Australia","1888","25149","imgNWTK/square.png","imgNWTK/triangle.png","imgNWTK/square.png","imgNWTK/triangle.png","noninfo","sub","3.17","","15","1","2","0","null","imgNWTK/square.png","imgNWTK/triangle.png","imgNWTK/square.png","NaN","NaN","","",""
"null","<p><b> Congratulations, you have finished this block. </b> </p><p>Please take a short break before moving onto the next block.</p><p>The next block will start after a 15 second break.</p><b>Remember, the point rewards are the same between blocks","","html-keyboard-response","23","290192","0.0-5.0","male","18","Australia","1888","25149","imgNWTK/square.png","imgNWTK/triangle.png","imgNWTK/square.png","imgNWTK/triangle.png","noninfo","sub","3.17","","","","","","","","","","","","null","",""
"1400","","","bandit-task-exp6","24","294192","0.0-6.0-0.0","male","18","Australia","1888","25149","imgNWTK/square.png","imgNWTK/triangle.png","imgNWTK/square.png","imgNWTK/triangle.png","noninfo","sub","3.17","","16","1","1","124","null","imgNWTK/square.png","imgNWTK/triangle.png","imgNWTK/square.png","NaN","NaN","","",""
"544","","","bandit-task-exp6","25","297684","0.0-6.0-0.1","male","18","Australia","1888","25149","imgNWTK/square.png","imgNWTK/triangle.png","imgNWTK/square.png","imgNWTK/triangle.png","noninfo","sub","3.17","","17","1","2","0","null","imgNWTK/triangle.png","imgNWTK/square.png","imgNWTK/square.png","NaN","NaN","","",""
"493","","","bandit-task-exp6","26","300928","0.0-6.0-0.2","male","18","Australia","1888","25149","imgNWTK/square.png","imgNWTK/triangle.png","imgNWTK/square.png","imgNWTK/triangle.png","noninfo","sub","3.17","","18","1","2","0","null","imgNWTK/square.png","imgNWTK/triangle.png","imgNWTK/square.png","NaN","NaN","","",""
"505","","","bandit-task-exp6","27","303974","0.0-6.0-0.3","male","18","Australia","1888","25149","imgNWTK/square.png","imgNWTK/triangle.png","imgNWTK/square.png","imgNWTK/triangle.png","noninfo","sub","3.17","","19","1","1","114","null","imgNWTK/triangle.png","imgNWTK/square.png","imgNWTK/square.png","NaN","NaN","","",""
"491","","","bandit-task-exp6","28","307010","0.0-6.0-0.4","male","18","Australia","1888","25149","imgNWTK/square.png","imgNWTK/triangle.png","imgNWTK/square.png","imgNWTK/triangle.png","noninfo","sub","3.17","","20","1","1","119","null","imgNWTK/square.png","imgNWTK/triangle.png","imgNWTK/square.png","NaN","NaN","","",""
"486","","","bandit-task-exp6","29","310112","0.0-6.0-0.5","male","18","Australia","1888","25149","imgNWTK/square.png","imgNWTK/triangle.png","imgNWTK/square.png","imgNWTK/triangle.png","noninfo","sub","3.17","","21","1","2","0","null","imgNWTK/square.png","imgNWTK/triangle.png","imgNWTK/square.png","NaN","NaN","","",""
"868","","","bandit-task-exp6","30","313798","0.0-6.0-0.6","male","18","Australia","1888","25149","imgNWTK/square.png","imgNWTK/triangle.png","imgNWTK/square.png","imgNWTK/triangle.png","noninfo","sub","3.17","","22","1","2","0","null","imgNWTK/square.png","imgNWTK/triangle.png","imgNWTK/square.png","NaN","NaN","","",""
"384","","","bandit-task-exp6","31","317009","0.0-6.0-0.7","male","18","Australia","1888","25149","imgNWTK/square.png","imgNWTK/triangle.png","imgNWTK/square.png","imgNWTK/triangle.png","noninfo","sub","3.17","","23","1","2","0","null","imgNWTK/square.png","imgNWTK/triangle.png","imgNWTK/square.png","NaN","NaN","","",""
"532","","","bandit-task-exp6","32","320174","0.0-6.0-0.8","male","18","Australia","1888","25149","imgNWTK/square.png","imgNWTK/triangle.png","imgNWTK/square.png","imgNWTK/triangle.png","noninfo","sub","3.17","","24","1","2","0","null","imgNWTK/triangle.png","imgNWTK/square.png","imgNWTK/square.png","NaN","NaN","","",""
"578","","","bandit-task-exp6","33","323565","0.0-6.0-0.9","male","18","Australia","1888","25149","imgNWTK/square.png","imgNWTK/triangle.png","imgNWTK/square.png","imgNWTK/triangle.png","noninfo","sub","3.17","","25","1","1","124","null","imgNWTK/square.png","imgNWTK/triangle.png","imgNWTK/square.png","NaN","NaN","","",""
"471","","","bandit-task-exp6","34","326780","0.0-6.0-0.10","male","18","Australia","1888","25149","imgNWTK/square.png","imgNWTK/triangle.png","imgNWTK/square.png","imgNWTK/triangle.png","noninfo","sub","3.17","","26","1","2","0","null","imgNWTK/square.png","imgNWTK/triangle.png","imgNWTK/square.png","NaN","NaN","","",""
"600","","","bandit-task-exp6","35","330162","0.0-6.0-0.11","male","18","Australia","1888","25149","imgNWTK/square.png","imgNWTK/triangle.png","imgNWTK/square.png","imgNWTK/triangle.png","noninfo","sub","3.17","","27","1","1","125","null","imgNWTK/square.png","imgNWTK/triangle.png","imgNWTK/square.png","NaN","NaN","","",""
"983","","","bandit-task-exp6","36","333666","0.0-6.0-0.12","male","18","Australia","1888","25149","imgNWTK/square.png","imgNWTK/triangle.png","imgNWTK/square.png","imgNWTK/triangle.png","noninfo","sub","3.17","","28","1","2","0","null","imgNWTK/square.png","imgNWTK/triangle.png","imgNWTK/square.png","NaN","NaN","","",""
"671","","","bandit-task-exp6","37","337120","0.0-6.0-0.13","male","18","Australia","1888","25149","imgNWTK/square.png","imgNWTK/triangle.png","imgNWTK/square.png","imgNWTK/triangle.png","noninfo","sub","3.17","","29","2","2","78","null","imgNWTK/square.png","imgNWTK/triangle.png","imgNWTK/triangle.png","NaN","NaN","","",""
"2466","","","bandit-task-exp6","38","342199","0.0-6.0-0.14","male","18","Australia","1888","25149","imgNWTK/square.png","imgNWTK/triangle.png","imgNWTK/square.png","imgNWTK/triangle.png","noninfo","sub","3.17","","30","2","1","0","null","imgNWTK/triangle.png","imgNWTK/square.png","imgNWTK/triangle.png","NaN","NaN","","",""
"null","<p><b> Congratulations, you have finished this block. </b> </p><p>Please take a short break before moving onto the next block.</p><p>The next block will start after a 15 second break.</p><b>Remember, the point rewards are the same between blocks","","html-keyboard-response","39","357214","0.0-7.0","male","18","Australia","1888","25149","imgNWTK/square.png","imgNWTK/triangle.png","imgNWTK/square.png","imgNWTK/triangle.png","noninfo","sub","3.17","","","","","","","","","","","","null","",""
"1194","","","bandit-task-exp6","40","360850","0.0-8.0-0.0","male","18","Australia","1888","25149","imgNWTK/square.png","imgNWTK/triangle.png","imgNWTK/square.png","imgNWTK/triangle.png","noninfo","sub","3.17","","31","1","2","0","null","imgNWTK/triangle.png","imgNWTK/square.png","imgNWTK/square.png","NaN","NaN","","",""
"463","","","bandit-task-exp6","41","363726","0.0-8.0-0.1","male","18","Australia","1888","25149","imgNWTK/square.png","imgNWTK/triangle.png","imgNWTK/square.png","imgNWTK/triangle.png","noninfo","sub","3.17","","32","2","2","75","null","imgNWTK/triangle.png","imgNWTK/square.png","imgNWTK/triangle.png","NaN","NaN","","",""
"361","","","bandit-task-exp6","42","366757","0.0-8.0-0.2","male","18","Australia","1888","25149","imgNWTK/square.png","imgNWTK/triangle.png","imgNWTK/square.png","imgNWTK/triangle.png","noninfo","sub","3.17","","33","1","2","0","null","imgNWTK/triangle.png","imgNWTK/square.png","imgNWTK/square.png","NaN","NaN","","",""
"612","","","bandit-task-exp6","43","370108","0.0-8.0-0.3","male","18","Australia","1888","25149","imgNWTK/square.png","imgNWTK/triangle.png","imgNWTK/square.png","imgNWTK/triangle.png","noninfo","sub","3.17","","34","1","2","0","null","imgNWTK/square.png","imgNWTK/triangle.png","imgNWTK/square.png","NaN","NaN","","",""
"435","","","bandit-task-exp6","44","373509","0.0-8.0-0.4","male","18","Australia","1888","25149","imgNWTK/square.png","imgNWTK/triangle.png","imgNWTK/square.png","imgNWTK/triangle.png","noninfo","sub","3.17","","35","1","1","124","null","imgNWTK/square.png","imgNWTK/triangle.png","imgNWTK/square.png","NaN","NaN","","",""
"397","","","bandit-task-exp6","45","376548","0.0-8.0-0.5","male","18","Australia","1888","25149","imgNWTK/square.png","imgNWTK/triangle.png","imgNWTK/square.png","imgNWTK/triangle.png","noninfo","sub","3.17","","36","1","1","111","null","imgNWTK/square.png","imgNWTK/triangle.png","imgNWTK/square.png","NaN","NaN","","",""
"388","","","bandit-task-exp6","46","379518","0.0-8.0-0.6","male","18","Australia","1888","25149","imgNWTK/square.png","imgNWTK/triangle.png","imgNWTK/square.png","imgNWTK/triangle.png","noninfo","sub","3.17","","37","1","1","111","null","imgNWTK/square.png","imgNWTK/triangle.png","imgNWTK/square.png","NaN","NaN","","",""
"391","","","bandit-task-exp6","47","383155","0.0-8.0-0.7","male","18","Australia","1888","25149","imgNWTK/square.png","imgNWTK/triangle.png","imgNWTK/square.png","imgNWTK/triangle.png","noninfo","sub","3.17","","38","1","1","122","null","imgNWTK/square.png","imgNWTK/triangle.png","imgNWTK/square.png","NaN","NaN","","",""
"612","","","bandit-task-exp6","48","386466","0.0-8.0-0.8","male","18","Australia","1888","25149","imgNWTK/square.png","imgNWTK/triangle.png","imgNWTK/square.png","imgNWTK/triangle.png","noninfo","sub","3.17","","39","1","1","113","null","imgNWTK/square.png","imgNWTK/triangle.png","imgNWTK/square.png","NaN","NaN","","",""
"561","","","bandit-task-exp6","49","389535","0.0-8.0-0.9","male","18","Australia","1888","25149","imgNWTK/square.png","imgNWTK/triangle.png","imgNWTK/square.png","imgNWTK/triangle.png","noninfo","sub","3.17","","40","1","1","128","null","imgNWTK/triangle.png","imgNWTK/square.png","imgNWTK/square.png","NaN","NaN","","",""
"469","","","bandit-task-exp6","50","393060","0.0-8.0-0.10","male","18","Australia","1888","25149","imgNWTK/square.png","imgNWTK/triangle.png","imgNWTK/square.png","imgNWTK/triangle.png","noninfo","sub","3.17","","41","1","2","0","null","imgNWTK/square.png","imgNWTK/triangle.png","imgNWTK/square.png","NaN","NaN","","",""
"627","","","bandit-task-exp6","51","396483","0.0-8.0-0.11","male","18","Australia","1888","25149","imgNWTK/square.png","imgNWTK/triangle.png","imgNWTK/square.png","imgNWTK/triangle.png","noninfo","sub","3.17","","42","1","1","120","null","imgNWTK/triangle.png","imgNWTK/square.png","imgNWTK/square.png","NaN","NaN","","",""
"466","","","bandit-task-exp6","52","399990","0.0-8.0-0.12","male","18","Australia","1888","25149","imgNWTK/square.png","imgNWTK/triangle.png","imgNWTK/square.png","imgNWTK/triangle.png","noninfo","sub","3.17","","43","1","2","0","null","imgNWTK/triangle.png","imgNWTK/square.png","imgNWTK/square.png","NaN","NaN","","",""
"418","","","bandit-task-exp6","53","404306","0.0-8.0-0.13","male","18","Australia","1888","25149","imgNWTK/square.png","imgNWTK/triangle.png","imgNWTK/square.png","imgNWTK/triangle.png","noninfo","sub","3.17","","44","1","2","0","null","imgNWTK/triangle.png","imgNWTK/square.png","imgNWTK/square.png","NaN","NaN","","",""
"498","","","bandit-task-exp6","54","408482","0.0-8.0-0.14","male","18","Australia","1888","25149","imgNWTK/square.png","imgNWTK/triangle.png","imgNWTK/square.png","imgNWTK/triangle.png","noninfo","sub","3.17","","45","1","2","0","null","imgNWTK/square.png","imgNWTK/triangle.png","imgNWTK/square.png","NaN","NaN","","",""
"null","<p><b> Congratulations, you have finished this block. </b> </p><p>Please take a short break before moving onto the next block.</p><p>The next block will start after a 15 second break.</p><b>Remember, the point rewards are the same between blocks","","html-keyboard-response","55","423483","0.0-9.0","male","18","Australia","1888","25149","imgNWTK/square.png","imgNWTK/triangle.png","imgNWTK/square.png","imgNWTK/triangle.png","noninfo","sub","3.17","","","","","","","","","","","","null","",""
"12957","","","bandit-task-exp6","56","439363","0.0-10.0-0.0","male","18","Australia","1888","25149","imgNWTK/square.png","imgNWTK/triangle.png","imgNWTK/square.png","imgNWTK/triangle.png","noninfo","sub","3.17","","46","1","1","120","null","imgNWTK/square.png","imgNWTK/triangle.png","imgNWTK/square.png","125","75","","",""
"11609","","","bandit-task-exp6","57","453914","0.0-10.0-0.1","male","18","Australia","1888","25149","imgNWTK/square.png","imgNWTK/triangle.png","imgNWTK/square.png","imgNWTK/triangle.png","noninfo","sub","3.17","","47","1","2","0","null","imgNWTK/square.png","imgNWTK/triangle.png","imgNWTK/square.png","112","75","","",""
"10946","","","bandit-task-exp6","58","467702","0.0-10.0-0.2","male","18","Australia","1888","25149","imgNWTK/square.png","imgNWTK/triangle.png","imgNWTK/square.png","imgNWTK/triangle.png","noninfo","sub","3.17","","48","1","1","116","null","imgNWTK/triangle.png","imgNWTK/square.png","imgNWTK/square.png","0","0","","",""
"6164","","","bandit-task-exp6","59","476943","0.0-10.0-0.3","male","18","Australia","1888","25149","imgNWTK/square.png","imgNWTK/triangle.png","imgNWTK/square.png","imgNWTK/triangle.png","noninfo","sub","3.17","","49","1","2","0","null","imgNWTK/triangle.png","imgNWTK/square.png","imgNWTK/square.png","0","112","","",""
"5872","","","bandit-task-exp6","60","485577","0.0-10.0-0.4","male","18","Australia","1888","25149","imgNWTK/square.png","imgNWTK/triangle.png","imgNWTK/square.png","imgNWTK/triangle.png","noninfo","sub","3.17","","50","2","2","74","null","imgNWTK/triangle.png","imgNWTK/square.png","imgNWTK/triangle.png","0","0","","",""
"8588","","","bandit-task-exp6","61","496941","0.0-10.0-0.5","male","18","Australia","1888","25149","imgNWTK/square.png","imgNWTK/triangle.png","imgNWTK/square.png","imgNWTK/triangle.png","noninfo","sub","3.17","","51","1","2","0","null","imgNWTK/triangle.png","imgNWTK/square.png","imgNWTK/square.png","74","0","","",""
"9650","","","bandit-task-exp6","62","509564","0.0-10.0-0.6","male","18","Australia","1888","25149","imgNWTK/square.png","imgNWTK/triangle.png","imgNWTK/square.png","imgNWTK/triangle.png","noninfo","sub","3.17","","52","1","1","124","null","imgNWTK/triangle.png","imgNWTK/square.png","imgNWTK/square.png","80","125","","",""
"15566","","","bandit-task-exp6","63","528130","0.0-10.0-0.7","male","18","Australia","1888","25149","imgNWTK/square.png","imgNWTK/triangle.png","imgNWTK/square.png","imgNWTK/triangle.png","noninfo","sub","3.17","","53","1","2","0","null","imgNWTK/square.png","imgNWTK/triangle.png","imgNWTK/square.png","0","0","","",""
"4174","","","bandit-task-exp6","64","535809","0.0-10.0-0.8","male","18","Australia","1888","25149","imgNWTK/square.png","imgNWTK/triangle.png","imgNWTK/square.png","imgNWTK/triangle.png","noninfo","sub","3.17","","54","1","2","0","null","imgNWTK/triangle.png","imgNWTK/square.png","imgNWTK/square.png","0","0","","",""
"21406","","","bandit-task-exp6","65","560086","0.0-10.0-0.9","male","18","Australia","1888","25149","imgNWTK/square.png","imgNWTK/triangle.png","imgNWTK/square.png","imgNWTK/triangle.png","noninfo","sub","3.17","","55","1","2","0","null","imgNWTK/triangle.png","imgNWTK/square.png","imgNWTK/square.png","80","112","","",""
"4751","","","bandit-task-exp6","66","568453","0.0-10.0-0.10","male","18","Australia","1888","25149","imgNWTK/square.png","imgNWTK/triangle.png","imgNWTK/square.png","imgNWTK/triangle.png","noninfo","sub","3.17","","56","1","1","126","null","imgNWTK/triangle.png","imgNWTK/square.png","imgNWTK/square.png","0","0","","",""
"10005","","","bandit-task-exp6","67","581179","0.0-10.0-0.11","male","18","Australia","1888","25149","imgNWTK/square.png","imgNWTK/triangle.png","imgNWTK/square.png","imgNWTK/triangle.png","noninfo","sub","3.17","","57","1","2","0","null","imgNWTK/square.png","imgNWTK/triangle.png","imgNWTK/square.png","124","80","","",""
"10500","","","bandit-task-exp6","68","594645","0.0-10.0-0.12","male","18","Australia","1888","25149","imgNWTK/square.png","imgNWTK/triangle.png","imgNWTK/square.png","imgNWTK/triangle.png","noninfo","sub","3.17","","58","1","2","0","null","imgNWTK/triangle.png","imgNWTK/square.png","imgNWTK/square.png","80","125","","",""
"6250","","","bandit-task-exp6","69","604536","0.0-10.0-0.13","male","18","Australia","1888","25149","imgNWTK/square.png","imgNWTK/triangle.png","imgNWTK/square.png","imgNWTK/triangle.png","noninfo","sub","3.17","","59","1","2","0","null","imgNWTK/triangle.png","imgNWTK/square.png","imgNWTK/square.png","0","0","","",""
"6560","","","bandit-task-exp6","70","614611","0.0-10.0-0.14","male","18","Australia","1888","25149","imgNWTK/square.png","imgNWTK/triangle.png","imgNWTK/square.png","imgNWTK/triangle.png","noninfo","sub","3.17","","60","1","2","0","null","imgNWTK/square.png","imgNWTK/triangle.png","imgNWTK/square.png","125","80","","",""
"2787","<p> Congratulations, you have finished the main part of the experiment. </p><p>Before you finish, we have a few short questions about the options and outcomes you saw in the task.</p>","0","html-button-response","71","617400","0.0-11.0","male","18","Australia","1888","25149","imgNWTK/square.png","imgNWTK/triangle.png","imgNWTK/square.png","imgNWTK/triangle.png","noninfo","sub","3.17","","","","","","","","","","","","","",""
"7907","<p><b>Now, imagine that you clicked on the below button for another 10 trials (this includes <i> BOTH WIN and NO-WIN trials</i>).</p> <img src= 'imgNWTK/square.png'></img></br></br> <p><b>Please type the reward (number of points) you would expect to receive on every trial.</br> Click start to begin.</p>","0","html-button-response","72","625309","0.0-12.0","male","18","Australia","1888","25149","imgNWTK/square.png","imgNWTK/triangle.png","imgNWTK/square.png","imgNWTK/triangle.png","noninfo","sub","3.17","","","","","","","","","","","","","",""
"4044.0999999046326","","","survey-number","73","629356","0.0-13.0-0.0","male","18","Australia","1888","25149","imgNWTK/square.png","imgNWTK/triangle.png","imgNWTK/square.png","imgNWTK/triangle.png","noninfo","sub","3.17","{""undefined"":""0""}","","","","","","","","","","","","imgNWTK/square.png",""
"2426.1999999284744","","","survey-number","74","631784","0.0-13.0-0.1","male","18","Australia","1888","25149","imgNWTK/square.png","imgNWTK/triangle.png","imgNWTK/square.png","imgNWTK/triangle.png","noninfo","sub","3.17","{""undefined"":""125""}","","","","","","","","","","","","imgNWTK/square.png",""
"2187.0999999046326","","","survey-number","75","633973","0.0-13.0-0.2","male","18","Australia","1888","25149","imgNWTK/square.png","imgNWTK/triangle.png","imgNWTK/square.png","imgNWTK/triangle.png","noninfo","sub","3.17","{""undefined"":""112""}","","","","","","","","","","","","imgNWTK/square.png",""
"2110.5","","","survey-number","76","636085","0.0-13.0-0.3","male","18","Australia","1888","25149","imgNWTK/square.png","imgNWTK/triangle.png","imgNWTK/square.png","imgNWTK/triangle.png","noninfo","sub","3.17","{""undefined"":""126""}","","","","","","","","","","","","imgNWTK/square.png",""
"1677.2000000476837","","","survey-number","77","637764","0.0-13.0-0.4","male","18","Australia","1888","25149","imgNWTK/square.png","imgNWTK/triangle.png","imgNWTK/square.png","imgNWTK/triangle.png","noninfo","sub","3.17","{""undefined"":""0""}","","","","","","","","","","","","imgNWTK/square.png",""
"1222.3000000715256","","","survey-number","78","638988","0.0-13.0-0.5","male","18","Australia","1888","25149","imgNWTK/square.png","imgNWTK/triangle.png","imgNWTK/square.png","imgNWTK/triangle.png","noninfo","sub","3.17","{""undefined"":""0""}","","","","","","","","","","","","imgNWTK/square.png",""
"1561.6000000238419","","","survey-number","79","640551","0.0-13.0-0.6","male","18","Australia","1888","25149","imgNWTK/square.png","imgNWTK/triangle.png","imgNWTK/square.png","imgNWTK/triangle.png","noninfo","sub","3.17","{""undefined"":""0""}","","","","","","","","","","","","imgNWTK/square.png",""
"7698.400000095367","","","survey-number","80","648251","0.0-13.0-0.7","male","18","Australia","1888","25149","imgNWTK/square.png","imgNWTK/triangle.png","imgNWTK/square.png","imgNWTK/triangle.png","noninfo","sub","3.17","{""undefined"":""112""}","","","","","","","","","","","","imgNWTK/square.png",""
"2933","","","survey-number","81","651186","0.0-13.0-0.8","male","18","Australia","1888","25149","imgNWTK/square.png","imgNWTK/triangle.png","imgNWTK/square.png","imgNWTK/triangle.png","noninfo","sub","3.17","{""undefined"":""0""}","","","","","","","","","","","","imgNWTK/square.png",""
"2145.5999999046326","","","survey-number","82","653333","0.0-13.0-0.9","male","18","Australia","1888","25149","imgNWTK/square.png","imgNWTK/triangle.png","imgNWTK/square.png","imgNWTK/triangle.png","noninfo","sub","3.17","{""undefined"":""126""}","","","","","","","","","","","","imgNWTK/square.png",""
"1312","<p><b>Imagine that you clicked on the below button for another 10 trials (this includes <i> both WIN and NO-WIN trials</i>).</p> <img src= 'imgNWTK/triangle.png'></img></br></br> <p><b>Please type the reward (number of points) you would expect to receive on every trial.</br> Click start to begin.</p>","0","html-button-response","83","654645","0.0-14.0","male","18","Australia","1888","25149","imgNWTK/square.png","imgNWTK/triangle.png","imgNWTK/square.png","imgNWTK/triangle.png","noninfo","sub","3.17","","","","","","","","","","","","","",""
"2757.3000000715256","","","survey-number","84","657405","0.0-15.0-0.0","male","18","Australia","1888","25149","imgNWTK/square.png","imgNWTK/triangle.png","imgNWTK/square.png","imgNWTK/triangle.png","noninfo","sub","3.17","{""undefined"":""0""}","","","","","","","","","","","","imgNWTK/triangle.png",""
"2073.6999999284744","","","survey-number","85","659480","0.0-15.0-0.1","male","18","Australia","1888","25149","imgNWTK/square.png","imgNWTK/triangle.png","imgNWTK/square.png","imgNWTK/triangle.png","noninfo","sub","3.17","{""undefined"":""80""}","","","","","","","","","","","","imgNWTK/triangle.png",""
"2053.1999999284744","","","survey-number","86","661535","0.0-15.0-0.2","male","18","Australia","1888","25149","imgNWTK/square.png","imgNWTK/triangle.png","imgNWTK/square.png","imgNWTK/triangle.png","noninfo","sub","3.17","{""undefined"":""75""}","","","","","","","","","","","","imgNWTK/triangle.png",""
"1920.5","","","survey-number","87","663457","0.0-15.0-0.3","male","18","Australia","1888","25149","imgNWTK/square.png","imgNWTK/triangle.png","imgNWTK/square.png","imgNWTK/triangle.png","noninfo","sub","3.17","{""undefined"":""76""}","","","","","","","","","","","","imgNWTK/triangle.png",""
"1046.2000000476837","","","survey-number","88","664504","0.0-15.0-0.4","male","18","Australia","1888","25149","imgNWTK/square.png","imgNWTK/triangle.png","imgNWTK/square.png","imgNWTK/triangle.png","noninfo","sub","3.17","{""undefined"":""0""}","","","","","","","","","","","","imgNWTK/triangle.png",""
"2691.600000023842","","","survey-number","89","667197","0.0-15.0-0.5","male","18","Australia","1888","25149","imgNWTK/square.png","imgNWTK/triangle.png","imgNWTK/square.png","imgNWTK/triangle.png","noninfo","sub","3.17","{""undefined"":""0""}","","","","","","","","","","","","imgNWTK/triangle.png",""
"2590.600000023842","","","survey-number","90","669789","0.0-15.0-0.6","male","18","Australia","1888","25149","imgNWTK/square.png","imgNWTK/triangle.png","imgNWTK/square.png","imgNWTK/triangle.png","noninfo","sub","3.17","{""undefined"":""80""}","","","","","","","","","","","","imgNWTK/triangle.png",""
"1720.5","","","survey-number","91","671512","0.0-15.0-0.7","male","18","Australia","1888","25149","imgNWTK/square.png","imgNWTK/triangle.png","imgNWTK/square.png","imgNWTK/triangle.png","noninfo","sub","3.17","{""undefined"":""79""}","","","","","","","","","","","","imgNWTK/triangle.png",""
"1103.5","","","survey-number","92","672616","0.0-15.0-0.8","male","18","Australia","1888","25149","imgNWTK/square.png","imgNWTK/triangle.png","imgNWTK/square.png","imgNWTK/triangle.png","noninfo","sub","3.17","{""undefined"":""0""}","","","","","","","","","","","","imgNWTK/triangle.png",""
"2938.899999976158","","","survey-number","93","675557","0.0-15.0-0.9","male","18","Australia","1888","25149","imgNWTK/square.png","imgNWTK/triangle.png","imgNWTK/square.png","imgNWTK/triangle.png","noninfo","sub","3.17","{""undefined"":""0""}","","","","","","","","","","","","imgNWTK/triangle.png",""
"18525.200000047684","","","survey-number","94","694090","0.0-16.0","male","18","Australia","1888","25149","imgNWTK/square.png","imgNWTK/triangle.png","imgNWTK/square.png","imgNWTK/triangle.png","noninfo","sub","3.17","{""undefined"":""50""}","","","","","","","","","","","","","imgNWTK/triangle.png"
"2197.8000000715256","","","survey-number","95","696290","0.0-17.0","male","18","Australia","1888","25149","imgNWTK/square.png","imgNWTK/triangle.png","imgNWTK/square.png","imgNWTK/triangle.png","noninfo","sub","3.17","{""undefined"":""80""}","","","","","","","","","","","","","imgNWTK/square.png"
"9953","<p style=""text-align:left;"">Great! We are almost at the end of the study... (Please do not close the browser window yet.)</p><p> Your final points balance is 3171, which equals to a bonus payment of $3.17. Please collect your payment from Mathews Building Room 721 (Mon-Fri 9am-5pm); please email amy.x.li@unsw.edu.au at least 24 hours prior to collection so that this is ready for you.</p><p style=""text-align:left;"">To view the debriefing form, please click <a href=""./imgNWTK/debrief_3205.pdf"" target=""_blank"">here</a> to download a copy.</p><p style=""text-align:left;"">Then, <b>please click the below button</b> to confirm that you have received your debrief and to complete the study. Upon clicking ""Finish!"", your SONA credit will be automatically assigned.</p>","0","html-button-response","96","706244","0.0-18.0","male","18","Australia","1888","25149","imgNWTK/square.png","imgNWTK/triangle.png","imgNWTK/square.png","imgNWTK/triangle.png","noninfo","sub","3.17","","","","","","","","","","","","","",""
