"rt","stimulus","button_pressed","trial_type","trial_index","time_elapsed","internal_node_id","gender","age","language","PID","sona_id","subStim","optStim","stim1","stim2","infoCond","optimCond","bonus","responses","banditTrial","choice","cue","feedback","estimateData","leftOption","rightOption","choiceName","leftInput","rightInput","key_press","postQ","singleEst"
"1316","<p>Thank you for signing up to participate in SONA Study 465! <br> During this study, please focus on the experiment and refrain from activities such as:</p>- <b>Switching to other tabs on your browser (this will be monitored via the experiment)</br> - Using your mobile phone/cell phone</br> - Communicating with others</br></br></b><p>This way, you are helping to provide data that is useful for psychological research. We thank you for your cooperation!</p>","0","html-button-response","0","1319","0.0-0.0","male","18","Australia","33624","24825","neither","neither","imgNWTK/KeepItSecret.jpg","imgNWTK/FindOutNow.jpg","info","eq","3.15","","","","","","","","","","","","","",""
"586","<p>Welcome to the experiment!</p><p>You will now read some instructions about the task. Press the 'Next' button to continue. </p>","0","html-button-response","1","1907","0.0-1.0","male","18","Australia","33624","24825","neither","neither","imgNWTK/KeepItSecret.jpg","imgNWTK/FindOutNow.jpg","info","eq","3.15","","","","","","","","","","","","","",""
"17832","<p> On each trial throughout the experiment you will choose between the options </br><b> Find Out Now </b> and <b> Keep It Secret </b>, as shown below.</p><div><div style= 'float: left; width: 300px; margin: 10px 10px;'><img src= 'imgNWTK/KeepItSecret.jpg'></img></div><div style= 'float: right; width: 300px; margin: 10px 10px;'><img src= 'imgNWTK/FindOutNow.jpg'></img></div></div><br/><br/><br/><br/><br/><br/><br/><br/><br/><br/><br/><p>Each option results in winning points or receiving 0 points.</br>There is a 50% chance of either winning or receiving 0 points.</p><p>You won't receive the outcome until after a <b> 20 second delay</b>. However, selecting the Find Out Now option will allow you to find out about the outcome early, whereas the Keep It Secret option will not. </p>","0","html-button-response","2","19743","0.0-2.0-0.0","male","18","Australia","33624","24825","neither","neither","imgNWTK/KeepItSecret.jpg","imgNWTK/FindOutNow.jpg","info","eq","3.15","","","","","","","","","","","","","",""
"21882","<img src= 'cues/Experiment6.png'></img><p>As seen above, when choosing the <b>'Find Out Now'</b> option, you will receive either a happy face or sad face.</br>The happy face means you will win points after the delay, whereas the sad face means you will receive 0 points.</br></p><p> When choosing the <b> 'Keep it Secret' </b> option you will receive a confused face.</br> This face appears regardless of whether you are going to win points or not. </p>In short, choosing 'Find Out Now' allows you to find out the outcome before you experience it (after the delay).</br></br>","0","html-button-response","3","41627","0.0-2.0-1.0","male","18","Australia","33624","24825","neither","neither","imgNWTK/KeepItSecret.jpg","imgNWTK/FindOutNow.jpg","info","eq","3.15","","","","","","","","","","","","","",""
"7702","<img src= 'cues/winTrials_info.png' width = '1200'></img><p>To reiterate, 50% of the outcomes of each option will be WIN TRIALS, and the other 50% will be NO-WIN TRIALS.","0","html-button-response","4","49332","0.0-2.0-2.0","male","18","Australia","33624","24825","neither","neither","imgNWTK/KeepItSecret.jpg","imgNWTK/FindOutNow.jpg","info","eq","3.15","","","","","","","","","","","","","",""
"13714","<p> There will be <b>four blocks</b> in the experiment.</br>You will be given a short 15 second break between each block.</p><p><b>The points and the options will remain the same between the blocks.</b></p>The blocks are there just to give you a small break.</br></br><p>The points you earn in the task are also equal to <b> actual money</b>.</br> <b>1000 points is equal to $1.</b></p><p>This is the rate you will be paid at the experiment's end.","0","html-button-response","5","63049","0.0-2.0-3.0","male","18","Australia","33624","24825","neither","neither","imgNWTK/KeepItSecret.jpg","imgNWTK/FindOutNow.jpg","info","eq","3.15","","","","","","","","","","","","","",""
"25225","","","survey-multi-choice","6","88292","0.0-2.0-4.0","male","18","Australia","33624","24825","neither","neither","imgNWTK/KeepItSecret.jpg","imgNWTK/FindOutNow.jpg","info","eq","3.15","{""Q0"":""20 Seconds"",""Q1"":""True"",""Q2"":""Differently"",""Q3"":""True""}","","","","","","","","","","","","",""
"1194","Unfortunately, at least one of your answers was incorrect. Let's read the instructions again.<p> ","0","html-button-response","7","89495","0.0-2.0-5.0-0.0","male","18","Australia","33624","24825","neither","neither","imgNWTK/KeepItSecret.jpg","imgNWTK/FindOutNow.jpg","info","eq","3.15","","","","","","","","","","","","","",""
"1614","<p> On each trial throughout the experiment you will choose between the options </br><b> Find Out Now </b> and <b> Keep It Secret </b>, as shown below.</p><div><div style= 'float: left; width: 300px; margin: 10px 10px;'><img src= 'imgNWTK/KeepItSecret.jpg'></img></div><div style= 'float: right; width: 300px; margin: 10px 10px;'><img src= 'imgNWTK/FindOutNow.jpg'></img></div></div><br/><br/><br/><br/><br/><br/><br/><br/><br/><br/><br/><p>Each option results in winning points or receiving 0 points.</br>There is a 50% chance of either winning or receiving 0 points.</p><p>You won't receive the outcome until after a <b> 20 second delay</b>. However, selecting the Find Out Now option will allow you to find out about the outcome early, whereas the Keep It Secret option will not. </p>","0","html-button-response","8","91112","0.0-2.1-0.1","male","18","Australia","33624","24825","neither","neither","imgNWTK/KeepItSecret.jpg","imgNWTK/FindOutNow.jpg","info","eq","3.15","","","","","","","","","","","","","",""
"1754","<img src= 'cues/Experiment6.png'></img><p>As seen above, when choosing the <b>'Find Out Now'</b> option, you will receive either a happy face or sad face.</br>The happy face means you will win points after the delay, whereas the sad face means you will receive 0 points.</br></p><p> When choosing the <b> 'Keep it Secret' </b> option you will receive a confused face.</br> This face appears regardless of whether you are going to win points or not. </p>In short, choosing 'Find Out Now' allows you to find out the outcome before you experience it (after the delay).</br></br>","0","html-button-response","9","92867","0.0-2.1-1.1","male","18","Australia","33624","24825","neither","neither","imgNWTK/KeepItSecret.jpg","imgNWTK/FindOutNow.jpg","info","eq","3.15","","","","","","","","","","","","","",""
"1143","<img src= 'cues/winTrials_info.png' width = '1200'></img><p>To reiterate, 50% of the outcomes of each option will be WIN TRIALS, and the other 50% will be NO-WIN TRIALS.","0","html-button-response","10","94012","0.0-2.1-2.1","male","18","Australia","33624","24825","neither","neither","imgNWTK/KeepItSecret.jpg","imgNWTK/FindOutNow.jpg","info","eq","3.15","","","","","","","","","","","","","",""
"785","<p> There will be <b>four blocks</b> in the experiment.</br>You will be given a short 15 second break between each block.</p><p><b>The points and the options will remain the same between the blocks.</b></p>The blocks are there just to give you a small break.</br></br><p>The points you earn in the task are also equal to <b> actual money</b>.</br> <b>1000 points is equal to $1.</b></p><p>This is the rate you will be paid at the experiment's end.","0","html-button-response","11","94799","0.0-2.1-3.1","male","18","Australia","33624","24825","neither","neither","imgNWTK/KeepItSecret.jpg","imgNWTK/FindOutNow.jpg","info","eq","3.15","","","","","","","","","","","","","",""
"8868","","","survey-multi-choice","12","103676","0.0-2.1-4.1","male","18","Australia","33624","24825","neither","neither","imgNWTK/KeepItSecret.jpg","imgNWTK/FindOutNow.jpg","info","eq","3.15","{""Q0"":""20 Seconds"",""Q1"":""True"",""Q2"":""Equally"",""Q3"":""True""}","","","","","","","","","","","","",""
"964","<p> Well done, all your answers were correct! <br> The experiment is about to start now. <br/> Click start to continue, or email your researcher <b>(amy.x.li@unsw.edu.au)</b> if you have any questions before starting.","0","html-button-response","13","104650","0.0-3.0","male","18","Australia","33624","24825","neither","neither","imgNWTK/KeepItSecret.jpg","imgNWTK/FindOutNow.jpg","info","eq","3.15","","","","","","","","","","","","","",""
"2691","","","bandit-task-exp6","14","129544","0.0-4.0-0.0","male","18","Australia","33624","24825","neither","neither","imgNWTK/KeepItSecret.jpg","imgNWTK/FindOutNow.jpg","info","eq","3.15","","1","2","1","0","null","imgNWTK/KeepItSecret.jpg","imgNWTK/FindOutNow.jpg","imgNWTK/FindOutNow.jpg","NaN","NaN","","",""
"987","","","bandit-task-exp6","15","152845","0.0-4.0-0.1","male","18","Australia","33624","24825","neither","neither","imgNWTK/KeepItSecret.jpg","imgNWTK/FindOutNow.jpg","info","eq","3.15","","2","1","2","0","null","imgNWTK/FindOutNow.jpg","imgNWTK/KeepItSecret.jpg","imgNWTK/KeepItSecret.jpg","NaN","NaN","","",""
"667","","","bandit-task-exp6","16","176542","0.0-4.0-0.2","male","18","Australia","33624","24825","neither","neither","imgNWTK/KeepItSecret.jpg","imgNWTK/FindOutNow.jpg","info","eq","3.15","","3","1","1","100","null","imgNWTK/KeepItSecret.jpg","imgNWTK/FindOutNow.jpg","imgNWTK/KeepItSecret.jpg","NaN","NaN","","",""
"1015","","","bandit-task-exp6","17","200553","0.0-4.0-0.3","male","18","Australia","33624","24825","neither","neither","imgNWTK/KeepItSecret.jpg","imgNWTK/FindOutNow.jpg","info","eq","3.15","","4","2","2","102","null","imgNWTK/KeepItSecret.jpg","imgNWTK/FindOutNow.jpg","imgNWTK/FindOutNow.jpg","NaN","NaN","","",""
"1285","","","bandit-task-exp6","18","225589","0.0-4.0-0.4","male","18","Australia","33624","24825","neither","neither","imgNWTK/KeepItSecret.jpg","imgNWTK/FindOutNow.jpg","info","eq","3.15","","5","2","1","0","null","imgNWTK/KeepItSecret.jpg","imgNWTK/FindOutNow.jpg","imgNWTK/FindOutNow.jpg","NaN","NaN","","",""
"1752","","","bandit-task-exp6","19","250095","0.0-4.0-0.5","male","18","Australia","33624","24825","neither","neither","imgNWTK/KeepItSecret.jpg","imgNWTK/FindOutNow.jpg","info","eq","3.15","","6","2","1","0","null","imgNWTK/KeepItSecret.jpg","imgNWTK/FindOutNow.jpg","imgNWTK/FindOutNow.jpg","NaN","NaN","","",""
"1164","","","bandit-task-exp6","20","273780","0.0-4.0-0.6","male","18","Australia","33624","24825","neither","neither","imgNWTK/KeepItSecret.jpg","imgNWTK/FindOutNow.jpg","info","eq","3.15","","7","2","1","0","null","imgNWTK/FindOutNow.jpg","imgNWTK/KeepItSecret.jpg","imgNWTK/FindOutNow.jpg","NaN","NaN","","",""
"1449","","","bandit-task-exp6","21","298225","0.0-4.0-0.7","male","18","Australia","33624","24825","neither","neither","imgNWTK/KeepItSecret.jpg","imgNWTK/FindOutNow.jpg","info","eq","3.15","","8","2","1","0","null","imgNWTK/KeepItSecret.jpg","imgNWTK/FindOutNow.jpg","imgNWTK/FindOutNow.jpg","NaN","NaN","","",""
"2742","","","bandit-task-exp6","22","322950","0.0-4.0-0.8","male","18","Australia","33624","24825","neither","neither","imgNWTK/KeepItSecret.jpg","imgNWTK/FindOutNow.jpg","info","eq","3.15","","9","2","2","106","null","imgNWTK/FindOutNow.jpg","imgNWTK/KeepItSecret.jpg","imgNWTK/FindOutNow.jpg","NaN","NaN","","",""
"1497","","","bandit-task-exp6","23","346364","0.0-4.0-0.9","male","18","Australia","33624","24825","neither","neither","imgNWTK/KeepItSecret.jpg","imgNWTK/FindOutNow.jpg","info","eq","3.15","","10","2","2","100","null","imgNWTK/KeepItSecret.jpg","imgNWTK/FindOutNow.jpg","imgNWTK/FindOutNow.jpg","NaN","NaN","","",""
"915","","","bandit-task-exp6","24","369272","0.0-4.0-0.10","male","18","Australia","33624","24825","neither","neither","imgNWTK/KeepItSecret.jpg","imgNWTK/FindOutNow.jpg","info","eq","3.15","","11","2","2","97","null","imgNWTK/KeepItSecret.jpg","imgNWTK/FindOutNow.jpg","imgNWTK/FindOutNow.jpg","NaN","NaN","","",""
"2930","","","bandit-task-exp6","25","395392","0.0-4.0-0.11","male","18","Australia","33624","24825","neither","neither","imgNWTK/KeepItSecret.jpg","imgNWTK/FindOutNow.jpg","info","eq","3.15","","12","2","2","108","null","imgNWTK/KeepItSecret.jpg","imgNWTK/FindOutNow.jpg","imgNWTK/FindOutNow.jpg","NaN","NaN","","",""
"3797","","","bandit-task-exp6","26","421049","0.0-4.0-0.12","male","18","Australia","33624","24825","neither","neither","imgNWTK/KeepItSecret.jpg","imgNWTK/FindOutNow.jpg","info","eq","3.15","","13","2","1","0","null","imgNWTK/FindOutNow.jpg","imgNWTK/KeepItSecret.jpg","imgNWTK/FindOutNow.jpg","NaN","NaN","","",""
"843","","","bandit-task-exp6","27","449773","0.0-4.0-0.13","male","18","Australia","33624","24825","neither","neither","imgNWTK/KeepItSecret.jpg","imgNWTK/FindOutNow.jpg","info","eq","3.15","","14","2","1","0","null","imgNWTK/FindOutNow.jpg","imgNWTK/KeepItSecret.jpg","imgNWTK/FindOutNow.jpg","NaN","NaN","","",""
"1514","","","bandit-task-exp6","28","473789","0.0-4.0-0.14","male","18","Australia","33624","24825","neither","neither","imgNWTK/KeepItSecret.jpg","imgNWTK/FindOutNow.jpg","info","eq","3.15","","15","2","2","93","null","imgNWTK/FindOutNow.jpg","imgNWTK/KeepItSecret.jpg","imgNWTK/FindOutNow.jpg","NaN","NaN","","",""
"null","<p><b> Congratulations, you have finished this block. </b> </p><p>Please take a short break before moving onto the next block.</p><p>The next block will start after a 15 second break.</p><b>Remember, the point rewards are the same between blocks","","html-keyboard-response","29","488795","0.0-5.0","male","18","Australia","33624","24825","neither","neither","imgNWTK/KeepItSecret.jpg","imgNWTK/FindOutNow.jpg","info","eq","3.15","","","","","","","","","","","","null","",""
"2461","","","bandit-task-exp6","30","516617","0.0-6.0-0.0","male","18","Australia","33624","24825","neither","neither","imgNWTK/KeepItSecret.jpg","imgNWTK/FindOutNow.jpg","info","eq","3.15","","16","2","1","0","null","imgNWTK/FindOutNow.jpg","imgNWTK/KeepItSecret.jpg","imgNWTK/FindOutNow.jpg","NaN","NaN","","",""
"3200","","","bandit-task-exp6","31","544079","0.0-6.0-0.1","male","18","Australia","33624","24825","neither","neither","imgNWTK/KeepItSecret.jpg","imgNWTK/FindOutNow.jpg","info","eq","3.15","","17","2","1","0","null","imgNWTK/FindOutNow.jpg","imgNWTK/KeepItSecret.jpg","imgNWTK/FindOutNow.jpg","NaN","NaN","","",""
"2284","","","bandit-task-exp6","32","570240","0.0-6.0-0.2","male","18","Australia","33624","24825","neither","neither","imgNWTK/KeepItSecret.jpg","imgNWTK/FindOutNow.jpg","info","eq","3.15","","18","2","1","0","null","imgNWTK/KeepItSecret.jpg","imgNWTK/FindOutNow.jpg","imgNWTK/FindOutNow.jpg","NaN","NaN","","",""
"2479","","","bandit-task-exp6","33","595466","0.0-6.0-0.3","male","18","Australia","33624","24825","neither","neither","imgNWTK/KeepItSecret.jpg","imgNWTK/FindOutNow.jpg","info","eq","3.15","","19","2","2","110","null","imgNWTK/FindOutNow.jpg","imgNWTK/KeepItSecret.jpg","imgNWTK/FindOutNow.jpg","NaN","NaN","","",""
"2230","","","bandit-task-exp6","34","621088","0.0-6.0-0.4","male","18","Australia","33624","24825","neither","neither","imgNWTK/KeepItSecret.jpg","imgNWTK/FindOutNow.jpg","info","eq","3.15","","20","2","1","0","null","imgNWTK/KeepItSecret.jpg","imgNWTK/FindOutNow.jpg","imgNWTK/FindOutNow.jpg","NaN","NaN","","",""
"868","","","bandit-task-exp6","35","644560","0.0-6.0-0.5","male","18","Australia","33624","24825","neither","neither","imgNWTK/KeepItSecret.jpg","imgNWTK/FindOutNow.jpg","info","eq","3.15","","21","1","1","106","null","imgNWTK/FindOutNow.jpg","imgNWTK/KeepItSecret.jpg","imgNWTK/KeepItSecret.jpg","NaN","NaN","","",""
"1300","","","bandit-task-exp6","36","672253","0.0-6.0-0.6","male","18","Australia","33624","24825","neither","neither","imgNWTK/KeepItSecret.jpg","imgNWTK/FindOutNow.jpg","info","eq","3.15","","22","2","1","0","null","imgNWTK/FindOutNow.jpg","imgNWTK/KeepItSecret.jpg","imgNWTK/FindOutNow.jpg","NaN","NaN","","",""
"964","","","bandit-task-exp6","37","696322","0.0-6.0-0.7","male","18","Australia","33624","24825","neither","neither","imgNWTK/KeepItSecret.jpg","imgNWTK/FindOutNow.jpg","info","eq","3.15","","23","2","1","0","null","imgNWTK/KeepItSecret.jpg","imgNWTK/FindOutNow.jpg","imgNWTK/FindOutNow.jpg","NaN","NaN","","",""
"1712","","","bandit-task-exp6","38","720971","0.0-6.0-0.8","male","18","Australia","33624","24825","neither","neither","imgNWTK/KeepItSecret.jpg","imgNWTK/FindOutNow.jpg","info","eq","3.15","","24","2","2","103","null","imgNWTK/FindOutNow.jpg","imgNWTK/KeepItSecret.jpg","imgNWTK/FindOutNow.jpg","NaN","NaN","","",""
"1379","","","bandit-task-exp6","39","746661","0.0-6.0-0.9","male","18","Australia","33624","24825","neither","neither","imgNWTK/KeepItSecret.jpg","imgNWTK/FindOutNow.jpg","info","eq","3.15","","25","1","1","91","null","imgNWTK/FindOutNow.jpg","imgNWTK/KeepItSecret.jpg","imgNWTK/KeepItSecret.jpg","NaN","NaN","","",""
"903","","","bandit-task-exp6","40","770689","0.0-6.0-0.10","male","18","Australia","33624","24825","neither","neither","imgNWTK/KeepItSecret.jpg","imgNWTK/FindOutNow.jpg","info","eq","3.15","","26","2","2","107","null","imgNWTK/FindOutNow.jpg","imgNWTK/KeepItSecret.jpg","imgNWTK/FindOutNow.jpg","NaN","NaN","","",""
"498","","","bandit-task-exp6","41","831434","0.0-6.0-0.11","male","18","Australia","33624","24825","neither","neither","imgNWTK/KeepItSecret.jpg","imgNWTK/FindOutNow.jpg","info","eq","3.15","","27","2","2","96","null","imgNWTK/FindOutNow.jpg","imgNWTK/KeepItSecret.jpg","imgNWTK/FindOutNow.jpg","NaN","NaN","","",""
"3796","","","bandit-task-exp6","42","859144","0.0-6.0-0.12","male","18","Australia","33624","24825","neither","neither","imgNWTK/KeepItSecret.jpg","imgNWTK/FindOutNow.jpg","info","eq","3.15","","28","2","1","0","null","imgNWTK/FindOutNow.jpg","imgNWTK/KeepItSecret.jpg","imgNWTK/FindOutNow.jpg","NaN","NaN","","",""
"1628","","","bandit-task-exp6","43","883461","0.0-6.0-0.13","male","18","Australia","33624","24825","neither","neither","imgNWTK/KeepItSecret.jpg","imgNWTK/FindOutNow.jpg","info","eq","3.15","","29","2","2","103","null","imgNWTK/FindOutNow.jpg","imgNWTK/KeepItSecret.jpg","imgNWTK/FindOutNow.jpg","NaN","NaN","","",""
"613","","","bandit-task-exp6","44","909099","0.0-6.0-0.14","male","18","Australia","33624","24825","neither","neither","imgNWTK/KeepItSecret.jpg","imgNWTK/FindOutNow.jpg","info","eq","3.15","","30","2","1","0","null","imgNWTK/FindOutNow.jpg","imgNWTK/KeepItSecret.jpg","imgNWTK/FindOutNow.jpg","NaN","NaN","","",""
"null","<p><b> Congratulations, you have finished this block. </b> </p><p>Please take a short break before moving onto the next block.</p><p>The next block will start after a 15 second break.</p><b>Remember, the point rewards are the same between blocks","","html-keyboard-response","45","924100","0.0-7.0","male","18","Australia","33624","24825","neither","neither","imgNWTK/KeepItSecret.jpg","imgNWTK/FindOutNow.jpg","info","eq","3.15","","","","","","","","","","","","null","",""
"10772","","","bandit-task-exp6","46","961049","0.0-8.0-0.0","male","18","Australia","33624","24825","neither","neither","imgNWTK/KeepItSecret.jpg","imgNWTK/FindOutNow.jpg","info","eq","3.15","","31","2","2","97","null","imgNWTK/FindOutNow.jpg","imgNWTK/KeepItSecret.jpg","imgNWTK/FindOutNow.jpg","NaN","NaN","","",""
"2460","","","bandit-task-exp6","47","986731","0.0-8.0-0.1","male","18","Australia","33624","24825","neither","neither","imgNWTK/KeepItSecret.jpg","imgNWTK/FindOutNow.jpg","info","eq","3.15","","32","1","1","93","null","imgNWTK/KeepItSecret.jpg","imgNWTK/FindOutNow.jpg","imgNWTK/KeepItSecret.jpg","NaN","NaN","","",""
"1812","","","bandit-task-exp6","48","1011462","0.0-8.0-0.2","male","18","Australia","33624","24825","neither","neither","imgNWTK/KeepItSecret.jpg","imgNWTK/FindOutNow.jpg","info","eq","3.15","","33","2","1","0","null","imgNWTK/KeepItSecret.jpg","imgNWTK/FindOutNow.jpg","imgNWTK/FindOutNow.jpg","NaN","NaN","","",""
"3247","","","bandit-task-exp6","49","1042770","0.0-8.0-0.3","male","18","Australia","33624","24825","neither","neither","imgNWTK/KeepItSecret.jpg","imgNWTK/FindOutNow.jpg","info","eq","3.15","","34","2","1","0","null","imgNWTK/KeepItSecret.jpg","imgNWTK/FindOutNow.jpg","imgNWTK/FindOutNow.jpg","NaN","NaN","","",""
"1815","","","bandit-task-exp6","50","1067283","0.0-8.0-0.4","male","18","Australia","33624","24825","neither","neither","imgNWTK/KeepItSecret.jpg","imgNWTK/FindOutNow.jpg","info","eq","3.15","","35","2","2","110","null","imgNWTK/KeepItSecret.jpg","imgNWTK/FindOutNow.jpg","imgNWTK/FindOutNow.jpg","NaN","NaN","","",""
"4810","","","bandit-task-exp6","51","1093962","0.0-8.0-0.5","male","18","Australia","33624","24825","neither","neither","imgNWTK/KeepItSecret.jpg","imgNWTK/FindOutNow.jpg","info","eq","3.15","","36","2","1","0","null","imgNWTK/KeepItSecret.jpg","imgNWTK/FindOutNow.jpg","imgNWTK/FindOutNow.jpg","NaN","NaN","","",""
"2395","","","bandit-task-exp6","52","1118410","0.0-8.0-0.6","male","18","Australia","33624","24825","neither","neither","imgNWTK/KeepItSecret.jpg","imgNWTK/FindOutNow.jpg","info","eq","3.15","","37","2","1","0","null","imgNWTK/FindOutNow.jpg","imgNWTK/KeepItSecret.jpg","imgNWTK/FindOutNow.jpg","NaN","NaN","","",""
"1483","","","bandit-task-exp6","53","1141943","0.0-8.0-0.7","male","18","Australia","33624","24825","neither","neither","imgNWTK/KeepItSecret.jpg","imgNWTK/FindOutNow.jpg","info","eq","3.15","","38","2","2","108","null","imgNWTK/FindOutNow.jpg","imgNWTK/KeepItSecret.jpg","imgNWTK/FindOutNow.jpg","NaN","NaN","","",""
"1394","","","bandit-task-exp6","54","1173513","0.0-8.0-0.8","male","18","Australia","33624","24825","neither","neither","imgNWTK/KeepItSecret.jpg","imgNWTK/FindOutNow.jpg","info","eq","3.15","","39","2","1","0","null","imgNWTK/FindOutNow.jpg","imgNWTK/KeepItSecret.jpg","imgNWTK/FindOutNow.jpg","NaN","NaN","","",""
"3081","","","bandit-task-exp6","55","1198801","0.0-8.0-0.9","male","18","Australia","33624","24825","neither","neither","imgNWTK/KeepItSecret.jpg","imgNWTK/FindOutNow.jpg","info","eq","3.15","","40","1","1","106","null","imgNWTK/FindOutNow.jpg","imgNWTK/KeepItSecret.jpg","imgNWTK/KeepItSecret.jpg","NaN","NaN","","",""
"1963","","","bandit-task-exp6","56","1222764","0.0-8.0-0.10","male","18","Australia","33624","24825","neither","neither","imgNWTK/KeepItSecret.jpg","imgNWTK/FindOutNow.jpg","info","eq","3.15","","41","2","2","98","null","imgNWTK/FindOutNow.jpg","imgNWTK/KeepItSecret.jpg","imgNWTK/FindOutNow.jpg","NaN","NaN","","",""
"1612","","","bandit-task-exp6","57","1247180","0.0-8.0-0.11","male","18","Australia","33624","24825","neither","neither","imgNWTK/KeepItSecret.jpg","imgNWTK/FindOutNow.jpg","info","eq","3.15","","42","1","1","97","null","imgNWTK/FindOutNow.jpg","imgNWTK/KeepItSecret.jpg","imgNWTK/KeepItSecret.jpg","NaN","NaN","","",""
"4135","","","bandit-task-exp6","58","1274090","0.0-8.0-0.12","male","18","Australia","33624","24825","neither","neither","imgNWTK/KeepItSecret.jpg","imgNWTK/FindOutNow.jpg","info","eq","3.15","","43","2","2","97","null","imgNWTK/FindOutNow.jpg","imgNWTK/KeepItSecret.jpg","imgNWTK/FindOutNow.jpg","NaN","NaN","","",""
"870","","","bandit-task-exp6","59","1296765","0.0-8.0-0.13","male","18","Australia","33624","24825","neither","neither","imgNWTK/KeepItSecret.jpg","imgNWTK/FindOutNow.jpg","info","eq","3.15","","44","2","1","0","null","imgNWTK/KeepItSecret.jpg","imgNWTK/FindOutNow.jpg","imgNWTK/FindOutNow.jpg","NaN","NaN","","",""
"3227","","","bandit-task-exp6","60","1321958","0.0-8.0-0.14","male","18","Australia","33624","24825","neither","neither","imgNWTK/KeepItSecret.jpg","imgNWTK/FindOutNow.jpg","info","eq","3.15","","45","2","2","101","null","imgNWTK/KeepItSecret.jpg","imgNWTK/FindOutNow.jpg","imgNWTK/FindOutNow.jpg","NaN","NaN","","",""
"null","<p><b> Congratulations, you have finished this block. </b> </p><p>Please take a short break before moving onto the next block.</p><p>The next block will start after a 15 second break.</p><b>Remember, the point rewards are the same between blocks","","html-keyboard-response","61","1336964","0.0-9.0","male","18","Australia","33624","24825","neither","neither","imgNWTK/KeepItSecret.jpg","imgNWTK/FindOutNow.jpg","info","eq","3.15","","","","","","","","","","","","null","",""
"32626","","","bandit-task-exp6","62","1393078","0.0-10.0-0.0","male","18","Australia","33624","24825","neither","neither","imgNWTK/KeepItSecret.jpg","imgNWTK/FindOutNow.jpg","info","eq","3.15","","46","1","1","99","null","imgNWTK/FindOutNow.jpg","imgNWTK/KeepItSecret.jpg","imgNWTK/KeepItSecret.jpg","102","98","","",""
"5101","","","bandit-task-exp6","63","1429665","0.0-10.0-0.1","male","18","Australia","33624","24825","neither","neither","imgNWTK/KeepItSecret.jpg","imgNWTK/FindOutNow.jpg","info","eq","3.15","","47","1","1","93","null","imgNWTK/KeepItSecret.jpg","imgNWTK/FindOutNow.jpg","imgNWTK/KeepItSecret.jpg","102","98","","",""
"13428","","","bandit-task-exp6","64","1465326","0.0-10.0-0.2","male","18","Australia","33624","24825","neither","neither","imgNWTK/KeepItSecret.jpg","imgNWTK/FindOutNow.jpg","info","eq","3.15","","48","1","2","0","null","imgNWTK/FindOutNow.jpg","imgNWTK/KeepItSecret.jpg","imgNWTK/KeepItSecret.jpg","99","110","","",""
"6774","","","bandit-task-exp6","65","1494101","0.0-10.0-0.3","male","18","Australia","33624","24825","neither","neither","imgNWTK/KeepItSecret.jpg","imgNWTK/FindOutNow.jpg","info","eq","3.15","","49","2","1","0","null","imgNWTK/FindOutNow.jpg","imgNWTK/KeepItSecret.jpg","imgNWTK/FindOutNow.jpg","104","89","","",""
"8764","","","bandit-task-exp6","66","1527188","0.0-10.0-0.4","male","18","Australia","33624","24825","neither","neither","imgNWTK/KeepItSecret.jpg","imgNWTK/FindOutNow.jpg","info","eq","3.15","","50","2","1","0","null","imgNWTK/KeepItSecret.jpg","imgNWTK/FindOutNow.jpg","imgNWTK/FindOutNow.jpg","100","88","","",""
"6107","","","bandit-task-exp6","67","1555331","0.0-10.0-0.5","male","18","Australia","33624","24825","neither","neither","imgNWTK/KeepItSecret.jpg","imgNWTK/FindOutNow.jpg","info","eq","3.15","","51","2","2","107","null","imgNWTK/KeepItSecret.jpg","imgNWTK/FindOutNow.jpg","imgNWTK/FindOutNow.jpg","100","100","","",""
"3888","","","bandit-task-exp6","68","1582396","0.0-10.0-0.6","male","18","Australia","33624","24825","neither","neither","imgNWTK/KeepItSecret.jpg","imgNWTK/FindOutNow.jpg","info","eq","3.15","","52","2","2","101","null","imgNWTK/FindOutNow.jpg","imgNWTK/KeepItSecret.jpg","imgNWTK/FindOutNow.jpg","100","100","","",""
"3895","","","bandit-task-exp6","69","1608527","0.0-10.0-0.7","male","18","Australia","33624","24825","neither","neither","imgNWTK/KeepItSecret.jpg","imgNWTK/FindOutNow.jpg","info","eq","3.15","","53","1","2","0","null","imgNWTK/FindOutNow.jpg","imgNWTK/KeepItSecret.jpg","imgNWTK/KeepItSecret.jpg","100","100","","",""
"6383","","","bandit-task-exp6","70","1644297","0.0-10.0-0.8","male","18","Australia","33624","24825","neither","neither","imgNWTK/KeepItSecret.jpg","imgNWTK/FindOutNow.jpg","info","eq","3.15","","54","2","1","0","null","imgNWTK/KeepItSecret.jpg","imgNWTK/FindOutNow.jpg","imgNWTK/FindOutNow.jpg","100","100","","",""
"4711","","","bandit-task-exp6","71","1672829","0.0-10.0-0.9","male","18","Australia","33624","24825","neither","neither","imgNWTK/KeepItSecret.jpg","imgNWTK/FindOutNow.jpg","info","eq","3.15","","55","2","2","109","null","imgNWTK/FindOutNow.jpg","imgNWTK/KeepItSecret.jpg","imgNWTK/FindOutNow.jpg","100","100","","",""
"6490","","","bandit-task-exp6","72","1703018","0.0-10.0-0.10","male","18","Australia","33624","24825","neither","neither","imgNWTK/KeepItSecret.jpg","imgNWTK/FindOutNow.jpg","info","eq","3.15","","56","2","1","0","null","imgNWTK/FindOutNow.jpg","imgNWTK/KeepItSecret.jpg","imgNWTK/FindOutNow.jpg","100","100","","",""
"4749","","","bandit-task-exp6","73","1730279","0.0-10.0-0.11","male","18","Australia","33624","24825","neither","neither","imgNWTK/KeepItSecret.jpg","imgNWTK/FindOutNow.jpg","info","eq","3.15","","57","1","1","106","null","imgNWTK/FindOutNow.jpg","imgNWTK/KeepItSecret.jpg","imgNWTK/KeepItSecret.jpg","100","100","","",""
"10173","","","bandit-task-exp6","74","1762398","0.0-10.0-0.12","male","18","Australia","33624","24825","neither","neither","imgNWTK/KeepItSecret.jpg","imgNWTK/FindOutNow.jpg","info","eq","3.15","","58","2","2","106","null","imgNWTK/KeepItSecret.jpg","imgNWTK/FindOutNow.jpg","imgNWTK/FindOutNow.jpg","100","100","","",""
"6217","","","bandit-task-exp6","75","1792332","0.0-10.0-0.13","male","18","Australia","33624","24825","neither","neither","imgNWTK/KeepItSecret.jpg","imgNWTK/FindOutNow.jpg","info","eq","3.15","","59","2","2","103","null","imgNWTK/FindOutNow.jpg","imgNWTK/KeepItSecret.jpg","imgNWTK/FindOutNow.jpg","100","100","","",""
"8537","","","bandit-task-exp6","76","1826302","0.0-10.0-0.14","male","18","Australia","33624","24825","neither","neither","imgNWTK/KeepItSecret.jpg","imgNWTK/FindOutNow.jpg","info","eq","3.15","","60","2","1","0","null","imgNWTK/FindOutNow.jpg","imgNWTK/KeepItSecret.jpg","imgNWTK/FindOutNow.jpg","100","100","","",""
"6309","<p> Congratulations, you have finished the main part of the experiment. </p><p>Before you finish, we have a few short questions about the options and outcomes you saw in the task.</p>","0","html-button-response","77","1832614","0.0-11.0","male","18","Australia","33624","24825","neither","neither","imgNWTK/KeepItSecret.jpg","imgNWTK/FindOutNow.jpg","info","eq","3.15","","","","","","","","","","","","","",""
"14941","<p><b>Now, imagine that you clicked on the below button for another 10 trials (this includes <i> BOTH WIN and NO-WIN trials</i>).</p> <img src= 'imgNWTK/FindOutNow.jpg'></img></br></br> <p><b>Please type the reward (number of points) you would expect to receive on every trial.</br> Click start to begin.</p>","0","html-button-response","78","1847557","0.0-12.0","male","18","Australia","33624","24825","neither","neither","imgNWTK/KeepItSecret.jpg","imgNWTK/FindOutNow.jpg","info","eq","3.15","","","","","","","","","","","","","",""
"2558.300000011921","","","survey-number","79","1850123","0.0-13.0-0.0","male","18","Australia","33624","24825","neither","neither","imgNWTK/KeepItSecret.jpg","imgNWTK/FindOutNow.jpg","info","eq","3.15","{""undefined"":""11""}","","","","","","","","","","","","imgNWTK/FindOutNow.jpg",""
"3422.199999988079","","","survey-number","80","1853552","0.0-13.0-0.1","male","18","Australia","33624","24825","neither","neither","imgNWTK/KeepItSecret.jpg","imgNWTK/FindOutNow.jpg","info","eq","3.15","{""undefined"":""120""}","","","","","","","","","","","","imgNWTK/FindOutNow.jpg",""
"2198.2000000476837","","","survey-number","81","1855754","0.0-13.0-0.2","male","18","Australia","33624","24825","neither","neither","imgNWTK/KeepItSecret.jpg","imgNWTK/FindOutNow.jpg","info","eq","3.15","{""undefined"":""98""}","","","","","","","","","","","","imgNWTK/FindOutNow.jpg",""
"703.1000000238419","","","survey-number","82","1856464","0.0-13.0-0.3","male","18","Australia","33624","24825","neither","neither","imgNWTK/KeepItSecret.jpg","imgNWTK/FindOutNow.jpg","info","eq","3.15","{""undefined"":""88""}","","","","","","","","","","","","imgNWTK/FindOutNow.jpg",""
"5516.199999988079","","","survey-number","83","1861984","0.0-13.0-0.4","male","18","Australia","33624","24825","neither","neither","imgNWTK/KeepItSecret.jpg","imgNWTK/FindOutNow.jpg","info","eq","3.15","{""undefined"":""123""}","","","","","","","","","","","","imgNWTK/FindOutNow.jpg",""
"1390.1000000238419","","","survey-number","84","1863381","0.0-13.0-0.5","male","18","Australia","33624","24825","neither","neither","imgNWTK/KeepItSecret.jpg","imgNWTK/FindOutNow.jpg","info","eq","3.15","{""undefined"":""103""}","","","","","","","","","","","","imgNWTK/FindOutNow.jpg",""
"1074","","","survey-number","85","1864459","0.0-13.0-0.6","male","18","Australia","33624","24825","neither","neither","imgNWTK/KeepItSecret.jpg","imgNWTK/FindOutNow.jpg","info","eq","3.15","{""undefined"":""105""}","","","","","","","","","","","","imgNWTK/FindOutNow.jpg",""
"1833.699999988079","","","survey-number","86","1866298","0.0-13.0-0.7","male","18","Australia","33624","24825","neither","neither","imgNWTK/KeepItSecret.jpg","imgNWTK/FindOutNow.jpg","info","eq","3.15","{""undefined"":""100""}","","","","","","","","","","","","imgNWTK/FindOutNow.jpg",""
"2802","","","survey-number","87","1869104","0.0-13.0-0.8","male","18","Australia","33624","24825","neither","neither","imgNWTK/KeepItSecret.jpg","imgNWTK/FindOutNow.jpg","info","eq","3.15","{""undefined"":""120""}","","","","","","","","","","","","imgNWTK/FindOutNow.jpg",""
"2516.199999988079","","","survey-number","88","1871625","0.0-13.0-0.9","male","18","Australia","33624","24825","neither","neither","imgNWTK/KeepItSecret.jpg","imgNWTK/FindOutNow.jpg","info","eq","3.15","{""undefined"":""94""}","","","","","","","","","","","","imgNWTK/FindOutNow.jpg",""
"722","<p><b>Imagine that you clicked on the below button for another 10 trials (this includes <i> both WIN and NO-WIN trials</i>).</p> <img src= 'imgNWTK/KeepItSecret.jpg'></img></br></br> <p><b>Please type the reward (number of points) you would expect to receive on every trial.</br> Click start to begin.</p>","0","html-button-response","89","1872348","0.0-14.0","male","18","Australia","33624","24825","neither","neither","imgNWTK/KeepItSecret.jpg","imgNWTK/FindOutNow.jpg","info","eq","3.15","","","","","","","","","","","","","",""
"3787.399999976158","","","survey-number","90","1876142","0.0-15.0-0.0","male","18","Australia","33624","24825","neither","neither","imgNWTK/KeepItSecret.jpg","imgNWTK/FindOutNow.jpg","info","eq","3.15","{""undefined"":""100""}","","","","","","","","","","","","imgNWTK/KeepItSecret.jpg",""
"1298.2000000476837","","","survey-number","91","1877445","0.0-15.0-0.1","male","18","Australia","33624","24825","neither","neither","imgNWTK/KeepItSecret.jpg","imgNWTK/FindOutNow.jpg","info","eq","3.15","{""undefined"":""120""}","","","","","","","","","","","","imgNWTK/KeepItSecret.jpg",""
"2225.5","","","survey-number","92","1879675","0.0-15.0-0.2","male","18","Australia","33624","24825","neither","neither","imgNWTK/KeepItSecret.jpg","imgNWTK/FindOutNow.jpg","info","eq","3.15","{""undefined"":""80""}","","","","","","","","","","","","imgNWTK/KeepItSecret.jpg",""
"1309.800000011921","","","survey-number","93","1880989","0.0-15.0-0.3","male","18","Australia","33624","24825","neither","neither","imgNWTK/KeepItSecret.jpg","imgNWTK/FindOutNow.jpg","info","eq","3.15","{""undefined"":""89""}","","","","","","","","","","","","imgNWTK/KeepItSecret.jpg",""
"684","","","survey-number","94","1881677","0.0-15.0-0.4","male","18","Australia","33624","24825","neither","neither","imgNWTK/KeepItSecret.jpg","imgNWTK/FindOutNow.jpg","info","eq","3.15","{""undefined"":""99""}","","","","","","","","","","","","imgNWTK/KeepItSecret.jpg",""
"1548.4000000357628","","","survey-number","95","1883229","0.0-15.0-0.5","male","18","Australia","33624","24825","neither","neither","imgNWTK/KeepItSecret.jpg","imgNWTK/FindOutNow.jpg","info","eq","3.15","{""undefined"":""102""}","","","","","","","","","","","","imgNWTK/KeepItSecret.jpg",""
"1105.300000011921","","","survey-number","96","1884338","0.0-15.0-0.6","male","18","Australia","33624","24825","neither","neither","imgNWTK/KeepItSecret.jpg","imgNWTK/FindOutNow.jpg","info","eq","3.15","{""undefined"":""103""}","","","","","","","","","","","","imgNWTK/KeepItSecret.jpg",""
"2758.699999988079","","","survey-number","97","1887101","0.0-15.0-0.7","male","18","Australia","33624","24825","neither","neither","imgNWTK/KeepItSecret.jpg","imgNWTK/FindOutNow.jpg","info","eq","3.15","{""undefined"":""114""}","","","","","","","","","","","","imgNWTK/KeepItSecret.jpg",""
"3758.899999976158","","","survey-number","98","1890864","0.0-15.0-0.8","male","18","Australia","33624","24825","neither","neither","imgNWTK/KeepItSecret.jpg","imgNWTK/FindOutNow.jpg","info","eq","3.15","{""undefined"":""84""}","","","","","","","","","","","","imgNWTK/KeepItSecret.jpg",""
"1598.1000000238419","","","survey-number","99","1892467","0.0-15.0-0.9","male","18","Australia","33624","24825","neither","neither","imgNWTK/KeepItSecret.jpg","imgNWTK/FindOutNow.jpg","info","eq","3.15","{""undefined"":""100""}","","","","","","","","","","","","imgNWTK/KeepItSecret.jpg",""
"38232.59999996424","","","survey-number","100","1930708","0.0-16.0","male","18","Australia","33624","24825","neither","neither","imgNWTK/KeepItSecret.jpg","imgNWTK/FindOutNow.jpg","info","eq","3.15","{""undefined"":""1200""}","","","","","","","","","","","","","imgNWTK/KeepItSecret.jpg"
"2475.199999988079","","","survey-number","101","1933189","0.0-17.0","male","18","Australia","33624","24825","neither","neither","imgNWTK/KeepItSecret.jpg","imgNWTK/FindOutNow.jpg","info","eq","3.15","{""undefined"":""2000""}","","","","","","","","","","","","","imgNWTK/FindOutNow.jpg"
"14402","<p style=""text-align:left;"">Great! We are almost at the end of the study... (Please do not close the browser window yet.)</p><p> Your final points balance is 3153, which equals to a bonus payment of $3.15. The payment can be collected from MAT721; please email amy.x.li@unsw.edu.au at least 24 hours prior to collection so that this is ready for you.</p><p style=""text-align:left;"">To view the debriefing form, please click <a href=""./imgNWTK/debrief_3205.pdf"" target=""_blank"">here</a> to download a copy.</p><p style=""text-align:left;"">Then, <b>please click the below button</b> to confirm that you have received your debrief and to complete the study. Upon clicking ""Finish!"", your SONA credit will be automatically assigned.</p>","0","html-button-response","102","1947596","0.0-18.0","male","18","Australia","33624","24825","neither","neither","imgNWTK/KeepItSecret.jpg","imgNWTK/FindOutNow.jpg","info","eq","3.15","","","","","","","","","","","","","",""
