"view_history","rt","trial_type","trial_index","time_elapsed","internal_node_id","condition","PID","stimulus","button_pressed","key_press","responses","banditTrial","choice","cue","feedback","magnit"
"[{""page_index"":0,""viewing_time"":7295}]","7298","instructions","0","7330","0.0-0.0","1","92459","","","","","","","","",""
"","9132","html-button-response","1","16473","0.0-1.0","1","92459","<p>This experiment is now online instead of in-person in a controlled computer lab due to the current COVID-19 pandemic.</br> Please focus on the experiment and refrain from activities such as:</p>- <b>switching to other tabs on your browser (this will be monitored via the experiment)</br> - going on your mobile phone/cell phone</br> - communicating with others</br></br></b><p>This way you are helping to provide data that is useful for psychological research.</p>","0","","","","","","",""
"","1234","html-keyboard-response","2","17711","0.0-2.0","1","92459","<p>Welcome to the experiment.</p><p>Press the SPACE bar to continue</p>","","32","","","","","",""
"","3367.8099999960978","survey-text","3","21093","0.0-3.0","1","92459","","","","{""undefined"":""28""}","","","","",""
"","2116","survey-multi-choice","4","23214","0.0-4.0","1","92459","","","","{""Q0"":""Female""}","","","","",""
"","7797","html-button-response","5","31020","0.0-5.0-0.0","1","92459","<p> On each trial throughout the experiment you will choose between two options </br>a <b>Black Square </b> and <b> Black Triangle </b>, as seen below.</p><div><div style= 'float: left; width: 300px; margin: 10px 10px;'><img src= 'NWTKimg/square.png'></img></div><div style= 'float: right; width: 300px; margin: 10px 10px;'><img src= 'NWTKimg/triangle.png'></img></div></div><br/><br/><br/><br/><br/><br/><br/><br/><br/><br/><br/><p>Each option results in winning points or receiving 0 points.</br></br>There is a 50% chance of either winning or receiving 0 points, but you won't receive the outcome until after a <b> 20 second delay</b>.</p>","0","","","","","","",""
"","26570","html-button-response","6","57596","0.0-5.0-1.0","1","92459","<img src= 'NWTKimg/NonInfoDiagram.png'></img><p>As seen above, whether you choose the square or triangle, you will receive a coloured circle after the choice. </p> <p>This circle will be on screen for 20 seconds until you win points or receive 0 points.</p><p>The coloured circle depends on which option you chose. </br> In the above example, choosing a triangle leads to a green circle and choosing the square leads to a red circle.</p>Please note, the circles in your task will be different to the above colours.</br></br>","0","","","","","","",""
"","13292","html-button-response","7","70893","0.0-5.0-2.0","1","92459","<p> There will be <b>four blocks</b> in the experiment.</br>You will be given a short 15 second break between each block.</p><p><b>The points and the options will remain the same between the blocks.</b></p>The blocks are there just to give you a small break.</br></br></br></br><p>The points you earn in the task are also equal to <b> actual money</b>.</br> <b>1000 points is equal to $1 USD</b></p><p>This is the rate you will be paid at the experiment's end.","0","","","","","","",""
"","7409","survey-multi-choice","8","78313","0.0-5.0-3.0","1","92459","","","","{""Q0"":""20 Seconds"",""Q1"":""True""}","","","","",""
"","1982","html-button-response","9","80307","0.0-6.0","1","92459","<p> The experiment is about to start. <br/> Click start to continue, or email your researcher <b>(j.embrey@unsw.edu.au)</b> if you have any questions before starting.","0","","","","","","",""
"","1948","bandit-task-exp6","10","106269","0.0-7.0-0.0","1","92459","","","","","1","1","1","126","NonInfo"
"","1666","bandit-task-exp6","11","130728","0.0-7.0-0.1","1","92459","","","","","2","1","2","0","NonInfo"
"","2504","bandit-task-exp6","12","156562","0.0-7.0-0.2","1","92459","","","","","3","1","1","112","NonInfo"
"","3029","bandit-task-exp6","13","183921","0.0-7.0-0.3","1","92459","","","","","4","1","1","127","NonInfo"
"","1900","bandit-task-exp6","14","208829","0.0-7.0-0.4","1","92459","","","","","5","1","1","129","NonInfo"
"","1344","bandit-task-exp6","15","233288","0.0-7.0-0.5","1","92459","","","","","6","2","2","79","NonInfo"
"","1454","bandit-task-exp6","16","257118","0.0-7.0-0.6","1","92459","","","","","7","1","2","0","NonInfo"
"","1084","bandit-task-exp6","17","281059","0.0-7.0-0.7","1","92459","","","","","8","1","2","0","NonInfo"
"","1851","bandit-task-exp6","18","306040","0.0-7.0-0.8","1","92459","","","","","9","2","2","75","NonInfo"
"","1978","bandit-task-exp6","19","331447","0.0-7.0-0.9","1","92459","","","","","10","2","1","0","NonInfo"
"","3665","bandit-task-exp6","20","358450","0.0-7.0-0.10","1","92459","","","","","11","2","2","84","NonInfo"
"","3047","bandit-task-exp6","21","383795","0.0-7.0-0.11","1","92459","","","","","12","2","1","0","NonInfo"
"","3144","bandit-task-exp6","22","409441","0.0-7.0-0.12","1","92459","","","","","13","2","1","0","NonInfo"
"","3807","bandit-task-exp6","23","436105","0.0-7.0-0.13","1","92459","","","","","14","1","1","113","NonInfo"
"","3974","bandit-task-exp6","24","462956","0.0-7.0-0.14","1","92459","","","","","15","1","1","117","NonInfo"
"","null","html-keyboard-response","25","477965","0.0-8.0","1","92459","<p><b> Congratulations, you have finished this block. </b> </p><p>Please take a short break before moving onto the next block.</p><p>The next block will start after a 15 second break.</p><b>Remember, the point rewards are the same between blocks","","null","","","","","",""
"","2835","bandit-task-exp6","26","505561","0.0-9.0-0.0","1","92459","","","","","16","2","1","0","NonInfo"
"","1478","bandit-task-exp6","27","531926","0.0-9.0-0.1","1","92459","","","","","17","1","1","110","NonInfo"
"","1467","bandit-task-exp6","28","557928","0.0-9.0-0.2","1","92459","","","","","18","1","1","118","NonInfo"
"","1195","bandit-task-exp6","29","581715","0.0-9.0-0.3","1","92459","","","","","19","1","1","124","NonInfo"
"","1655","bandit-task-exp6","30","605986","0.0-9.0-0.4","1","92459","","","","","20","1","1","118","NonInfo"
"","753","bandit-task-exp6","31","630350","0.0-9.0-0.5","1","92459","","","","","21","2","2","79","NonInfo"
"","1319","bandit-task-exp6","32","654764","0.0-9.0-0.6","1","92459","","","","","22","2","2","85","NonInfo"
"","2045","bandit-task-exp6","33","680549","0.0-9.0-0.7","1","92459","","","","","23","1","2","0","NonInfo"
"","3329","bandit-task-exp6","34","707269","0.0-9.0-0.8","1","92459","","","","","24","2","2","84","NonInfo"
"","1911","bandit-task-exp6","35","731512","0.0-9.0-0.9","1","92459","","","","","25","2","2","74","NonInfo"
"","2797","bandit-task-exp6","36","757623","0.0-9.0-0.10","1","92459","","","","","26","1","2","0","NonInfo"
"","2788","bandit-task-exp6","37","783343","0.0-9.0-0.11","1","92459","","","","","27","2","1","0","NonInfo"
"","887","bandit-task-exp6","38","806384","0.0-9.0-0.12","1","92459","","","","","28","1","2","0","NonInfo"
"","1390","bandit-task-exp6","39","830221","0.0-9.0-0.13","1","92459","","","","","29","2","2","88","NonInfo"
"","16252","bandit-task-exp6","40","868776","0.0-9.0-0.14","1","92459","","","","","30","2","1","0","NonInfo"
"","null","html-keyboard-response","41","883785","0.0-10.0","1","92459","<p><b> Congratulations, you have finished this block. </b> </p><p>Please take a short break before moving onto the next block.</p><p>The next block will start after a 15 second break.</p><b>Remember, the point rewards are the same between blocks","","null","","","","","",""
"","2681","bandit-task-exp6","42","909349","0.0-11.0-0.0","1","92459","","","","","31","1","2","0","NonInfo"
"","771","bandit-task-exp6","43","932771","0.0-11.0-0.1","1","92459","","","","","32","2","1","0","NonInfo"
"","876","bandit-task-exp6","44","957049","0.0-11.0-0.2","1","92459","","","","","33","1","2","0","NonInfo"
"","1944","bandit-task-exp6","45","982168","0.0-11.0-0.3","1","92459","","","","","34","1","2","0","NonInfo"
"","787","bandit-task-exp6","46","1005654","0.0-11.0-0.4","1","92459","","","","","35","2","1","0","NonInfo"
"","1030","bandit-task-exp6","47","1029480","0.0-11.0-0.5","1","92459","","","","","36","2","1","0","NonInfo"
"","1267","bandit-task-exp6","48","1053768","0.0-11.0-0.6","1","92459","","","","","37","2","2","87","NonInfo"
"","2034","bandit-task-exp6","49","1078701","0.0-11.0-0.7","1","92459","","","","","38","1","1","126","NonInfo"
"","2327","bandit-task-exp6","50","1103585","0.0-11.0-0.8","1","92459","","","","","39","1","1","111","NonInfo"
"","655","bandit-task-exp6","51","1127502","0.0-11.0-0.9","1","92459","","","","","40","2","1","0","NonInfo"
"","1784","bandit-task-exp6","52","1152119","0.0-11.0-0.10","1","92459","","","","","41","2","1","0","NonInfo"
"","1583","bandit-task-exp6","53","1176297","0.0-11.0-0.11","1","92459","","","","","42","2","2","82","NonInfo"
"","803","bandit-task-exp6","54","1199883","0.0-11.0-0.12","1","92459","","","","","43","1","2","0","NonInfo"
"","1686","bandit-task-exp6","55","1224085","0.0-11.0-0.13","1","92459","","","","","44","2","1","0","NonInfo"
"","550","bandit-task-exp6","56","1247144","0.0-11.0-0.14","1","92459","","","","","45","1","1","115","NonInfo"
"","null","html-keyboard-response","57","1262154","0.0-12.0","1","92459","<p><b> Congratulations, you have finished this block. </b> </p><p>Please take a short break before moving onto the next block.</p><p>The next block will start after a 15 second break.</p><b>Remember, the point rewards are the same between blocks","","null","","","","","",""
"","1990","bandit-task-exp6","58","1286313","0.0-13.0-0.0","1","92459","","","","","46","1","1","116","NonInfo"
"","1108","bandit-task-exp6","59","1309525","0.0-13.0-0.1","1","92459","","","","","47","1","2","0","NonInfo"
"","1116","bandit-task-exp6","60","1333242","0.0-13.0-0.2","1","92459","","","","","48","2","2","71","NonInfo"
"","1131","bandit-task-exp6","61","1356754","0.0-13.0-0.3","1","92459","","","","","49","2","1","0","NonInfo"
"","1008","bandit-task-exp6","62","1380151","0.0-13.0-0.4","1","92459","","","","","50","2","1","0","NonInfo"
"","2076","bandit-task-exp6","63","1405066","0.0-13.0-0.5","1","92459","","","","","51","1","1","123","NonInfo"
"","1756","bandit-task-exp6","64","1429689","0.0-13.0-0.6","1","92459","","","","","52","1","1","117","NonInfo"
"","1387","bandit-task-exp6","65","1453515","0.0-13.0-0.7","1","92459","","","","","53","2","1","0","NonInfo"
"","2165","bandit-task-exp6","66","1478030","0.0-13.0-0.8","1","92459","","","","","54","1","2","0","NonInfo"
"","1185","bandit-task-exp6","67","1501633","0.0-13.0-0.9","1","92459","","","","","55","1","2","0","NonInfo"
"","1458","bandit-task-exp6","68","1525389","0.0-13.0-0.10","1","92459","","","","","56","2","2","76","NonInfo"
"","1027","bandit-task-exp6","69","1548773","0.0-13.0-0.11","1","92459","","","","","57","1","2","0","NonInfo"
"","1263","bandit-task-exp6","70","1572209","0.0-13.0-0.12","1","92459","","","","","58","1","2","0","NonInfo"
"","1196","bandit-task-exp6","71","1595454","0.0-13.0-0.13","1","92459","","","","","59","2","1","0","NonInfo"
"","1737","bandit-task-exp6","72","1619637","0.0-13.0-0.14","1","92459","","","","","60","1","1","128","NonInfo"
"","2924","html-button-response","73","1622569","0.0-14.0","1","92459","<p> Congratulations, you have finished the main part of the experiment. </p><p>Before you finish, we have a few short questions about the options and outcomes you saw in the task.</p>","0","","","","","","",""
"","16092.17000000365","survey-text","74","1638677","0.0-15.0","1","92459","","","","{""undefined"":""1000""}","","","","",""
"","4160.544999991544","survey-text","75","1642856","0.0-16.0","1","92459","","","","{""undefined"":""1000""}","","","","",""
"","9902.06999999634","survey-text","76","1652776","0.0-17.0","1","92459","","","","{""undefined"":""ASN324YSQ02MH""}","","","","",""
"","15008","html-button-response","77","1667792","0.0-18.0","1","92459","<p><b>The task is now finished</b></p>Copy the following code:  <b>92459</b></br><p>This is your HIT which you will need to receive payment via mTurk.</p><p><b>Thank you for taking part and completing the experiment!</b></p>","0","","","","","","",""
