"view_history","rt","trial_type","trial_index","time_elapsed","internal_node_id","condition","PID","stimulus","button_pressed","key_press","responses","banditTrial","choice","cue","feedback","magnit"
"[{""page_index"":0,""viewing_time"":8967}]","8968","instructions","0","8974","0.0-0.0","1","49136","","","","","","","","",""
"","6026","html-button-response","1","15004","0.0-1.0","1","49136","<p>This experiment is now online instead of in-person in a controlled computer lab due to the current COVID-19 pandemic.</br> Please focus on the experiment and refrain from activities such as:</p>- <b>switching to other tabs on your browser (this will be monitored via the experiment)</br> - going on your mobile phone/cell phone</br> - communicating with others</br></br></b><p>This way you are helping to provide data that is useful for psychological research.</p>","0","","","","","","",""
"","1251","html-keyboard-response","2","16256","0.0-2.0","1","49136","<p>Welcome to the experiment.</p><p>Press the SPACE bar to continue</p>","","32","","","","","",""
"","3452.014999988023","survey-text","3","19713","0.0-3.0","1","49136","","","","{""undefined"":""31""}","","","","",""
"","1454","survey-multi-choice","4","21173","0.0-4.0","1","49136","","","","{""Q0"":""Male""}","","","","",""
"","11836","html-button-response","5","33013","0.0-5.0-0.0","1","49136","<p> On each trial throughout the experiment you will choose between two options </br>a <b>Black Square </b> and <b> Black Triangle </b>, as seen below.</p><div><div style= 'float: left; width: 300px; margin: 10px 10px;'><img src= 'NWTKimg/square.png'></img></div><div style= 'float: right; width: 300px; margin: 10px 10px;'><img src= 'NWTKimg/triangle.png'></img></div></div><br/><br/><br/><br/><br/><br/><br/><br/><br/><br/><br/><p>Each option results in winning points or receiving 0 points.</br></br>There is a 50% chance of either winning or receiving 0 points, but you won't receive the outcome until after a <b> 20 second delay</b>.</p>","0","","","","","","",""
"","13153","html-button-response","6","46169","0.0-5.0-1.0","1","49136","<img src= 'NWTKimg/NonInfoDiagram.png'></img><p>As seen above, whether you choose the square or triangle, you will receive a coloured circle after the choice. </p> <p>This circle will be on screen for 20 seconds until you win points or receive 0 points.</p><p>The coloured circle depends on which option you chose. </br> In the above example, choosing a triangle leads to a green circle and choosing the square leads to a red circle.</p>Please note, the circles in your task will be different to the above colours.</br></br>","0","","","","","","",""
"","5465","html-button-response","7","51636","0.0-5.0-2.0","1","49136","<p> There will be <b>four blocks</b> in the experiment.</br>You will be given a short 15 second break between each block.</p><p><b>The points and the options will remain the same between the blocks.</b></p>The blocks are there just to give you a small break.</br></br></br></br><p>The points you earn in the task are also equal to <b> actual money</b>.</br> <b>1000 points is equal to $1 USD</b></p><p>This is the rate you will be paid at the experiment's end.","0","","","","","","",""
"","3763","survey-multi-choice","8","55405","0.0-5.0-3.0","1","49136","","","","{""Q0"":""20 Seconds"",""Q1"":""True""}","","","","",""
"","1663","html-button-response","9","57071","0.0-6.0","1","49136","<p> The experiment is about to start. <br/> Click start to continue, or email your researcher <b>(j.embrey@unsw.edu.au)</b> if you have any questions before starting.","0","","","","","","",""
"","2394","bandit-task-exp6","10","95129","0.0-7.0-0.0","1","49136","","","","","1","1","2","0","NonInfo"
"","1176","bandit-task-exp6","11","119992","0.0-7.0-0.1","1","49136","","","","","2","2","2","74","NonInfo"
"","545","bandit-task-exp6","12","142466","0.0-7.0-0.2","1","49136","","","","","3","2","2","73","NonInfo"
"","580","bandit-task-exp6","13","165073","0.0-7.0-0.3","1","49136","","","","","4","2","1","0","NonInfo"
"","1459","bandit-task-exp6","14","188916","0.0-7.0-0.4","1","49136","","","","","5","2","1","0","NonInfo"
"","627","bandit-task-exp6","15","217510","0.0-7.0-0.5","1","49136","","","","","6","1","2","0","NonInfo"
"","610","bandit-task-exp6","16","239906","0.0-7.0-0.6","1","49136","","","","","7","2","1","0","NonInfo"
"","718","bandit-task-exp6","17","264705","0.0-7.0-0.7","1","49136","","","","","8","2","1","0","NonInfo"
"","616","bandit-task-exp6","18","289538","0.0-7.0-0.8","1","49136","","","","","9","2","1","0","NonInfo"
"","962","bandit-task-exp6","19","317327","0.0-7.0-0.9","1","49136","","","","","10","2","1","0","NonInfo"
"","585","bandit-task-exp6","20","340244","0.0-7.0-0.10","1","49136","","","","","11","2","1","0","NonInfo"
"","851","bandit-task-exp6","21","364099","0.0-7.0-0.11","1","49136","","","","","12","1","2","0","NonInfo"
"","736","bandit-task-exp6","22","386682","0.0-7.0-0.12","1","49136","","","","","13","2","2","71","NonInfo"
"","818","bandit-task-exp6","23","412569","0.0-7.0-0.13","1","49136","","","","","14","1","2","0","NonInfo"
"","940","bandit-task-exp6","24","436673","0.0-7.0-0.14","1","49136","","","","","15","1","2","0","NonInfo"
"","null","html-keyboard-response","25","451677","0.0-8.0","1","49136","<p><b> Congratulations, you have finished this block. </b> </p><p>Please take a short break before moving onto the next block.</p><p>The next block will start after a 15 second break.</p><b>Remember, the point rewards are the same between blocks","","null","","","","","",""
"","2201","bandit-task-exp6","26","475937","0.0-9.0-0.0","1","49136","","","","","16","1","2","0","NonInfo"
"","1516","bandit-task-exp6","27","502540","0.0-9.0-0.1","1","49136","","","","","17","1","1","115","NonInfo"
"","711","bandit-task-exp6","28","528255","0.0-9.0-0.2","1","49136","","","","","18","1","2","0","NonInfo"
"","1615","bandit-task-exp6","29","551722","0.0-9.0-0.3","1","49136","","","","","19","2","2","74","NonInfo"
"","1120","bandit-task-exp6","30","575179","0.0-9.0-0.4","1","49136","","","","","20","2","1","0","NonInfo"
"","991","bandit-task-exp6","31","598532","0.0-9.0-0.5","1","49136","","","","","21","1","2","0","NonInfo"
"","671","bandit-task-exp6","32","621385","0.0-9.0-0.6","1","49136","","","","","22","1","1","118","NonInfo"
"","1509","bandit-task-exp6","33","644962","0.0-9.0-0.7","1","49136","","","","","23","1","1","119","NonInfo"
"","702","bandit-task-exp6","34","667497","0.0-9.0-0.8","1","49136","","","","","24","1","1","113","NonInfo"
"","798","bandit-task-exp6","35","690235","0.0-9.0-0.9","1","49136","","","","","25","1","1","110","NonInfo"
"","781","bandit-task-exp6","36","712944","0.0-9.0-0.10","1","49136","","","","","26","1","1","118","NonInfo"
"","873","bandit-task-exp6","37","735602","0.0-9.0-0.11","1","49136","","","","","27","1","1","117","NonInfo"
"","645","bandit-task-exp6","38","761942","0.0-9.0-0.12","1","49136","","","","","28","1","2","0","NonInfo"
"","705","bandit-task-exp6","39","784951","0.0-9.0-0.13","1","49136","","","","","29","2","2","76","NonInfo"
"","498","bandit-task-exp6","40","818558","0.0-9.0-0.14","1","49136","","","","","30","2","1","0","NonInfo"
"","null","html-keyboard-response","41","833560","0.0-10.0","1","49136","<p><b> Congratulations, you have finished this block. </b> </p><p>Please take a short break before moving onto the next block.</p><p>The next block will start after a 15 second break.</p><b>Remember, the point rewards are the same between blocks","","null","","","","","",""
"","51310","bandit-task-exp6","42","906783","0.0-11.0-0.0","1","49136","","","","","31","2","2","78","NonInfo"
"","805","bandit-task-exp6","43","935557","0.0-11.0-0.1","1","49136","","","","","32","2","2","89","NonInfo"
"","893","bandit-task-exp6","44","958671","0.0-11.0-0.2","1","49136","","","","","33","1","2","0","NonInfo"
"","656","bandit-task-exp6","45","982537","0.0-11.0-0.3","1","49136","","","","","34","1","1","115","NonInfo"
"","838","bandit-task-exp6","46","1007061","0.0-11.0-0.4","1","49136","","","","","35","2","2","81","NonInfo"
"","1476","bandit-task-exp6","47","1031169","0.0-11.0-0.5","1","49136","","","","","36","2","1","0","NonInfo"
"","714","bandit-task-exp6","48","1054113","0.0-11.0-0.6","1","49136","","","","","37","2","2","83","NonInfo"
"","611","bandit-task-exp6","49","1079224","0.0-11.0-0.7","1","49136","","","","","38","2","1","0","NonInfo"
"","579","bandit-task-exp6","50","1102144","0.0-11.0-0.8","1","49136","","","","","39","2","2","80","NonInfo"
"","1243","bandit-task-exp6","51","1126171","0.0-11.0-0.9","1","49136","","","","","40","1","2","0","NonInfo"
"","654","bandit-task-exp6","52","1150476","0.0-11.0-0.10","1","49136","","","","","41","2","1","0","NonInfo"
"","3225","bandit-task-exp6","53","1176796","0.0-11.0-0.11","1","49136","","","","","42","1","2","0","NonInfo"
"","651","bandit-task-exp6","54","1199514","0.0-11.0-0.12","1","49136","","","","","43","1","2","0","NonInfo"
"","782","bandit-task-exp6","55","1227607","0.0-11.0-0.13","1","49136","","","","","44","1","2","0","NonInfo"
"","773","bandit-task-exp6","56","1256009","0.0-11.0-0.14","1","49136","","","","","45","2","1","0","NonInfo"
"","null","html-keyboard-response","57","1271012","0.0-12.0","1","49136","<p><b> Congratulations, you have finished this block. </b> </p><p>Please take a short break before moving onto the next block.</p><p>The next block will start after a 15 second break.</p><b>Remember, the point rewards are the same between blocks","","null","","","","","",""
"","4088","bandit-task-exp6","58","1302343","0.0-13.0-0.0","1","49136","","","","","46","2","1","0","NonInfo"
"","1099","bandit-task-exp6","59","1326757","0.0-13.0-0.1","1","49136","","","","","47","2","2","82","NonInfo"
"","693","bandit-task-exp6","60","1349758","0.0-13.0-0.2","1","49136","","","","","48","1","1","111","NonInfo"
"","944","bandit-task-exp6","61","1372522","0.0-13.0-0.3","1","49136","","","","","49","1","1","111","NonInfo"
"","835","bandit-task-exp6","62","1396578","0.0-13.0-0.4","1","49136","","","","","50","1","1","126","NonInfo"
"","753","bandit-task-exp6","63","1419431","0.0-13.0-0.5","1","49136","","","","","51","2","2","72","NonInfo"
"","646","bandit-task-exp6","64","1446596","0.0-13.0-0.6","1","49136","","","","","52","2","1","0","NonInfo"
"","571","bandit-task-exp6","65","1470444","0.0-13.0-0.7","1","49136","","","","","53","2","1","0","NonInfo"
"","815","bandit-task-exp6","66","1495372","0.0-13.0-0.8","1","49136","","","","","54","1","2","0","NonInfo"
"","718","bandit-task-exp6","67","1518252","0.0-13.0-0.9","1","49136","","","","","55","2","1","0","NonInfo"
"","908","bandit-task-exp6","68","1542079","0.0-13.0-0.10","1","49136","","","","","56","1","2","0","NonInfo"
"","1410","bandit-task-exp6","69","1568333","0.0-13.0-0.11","1","49136","","","","","57","1","2","0","NonInfo"
"","915","bandit-task-exp6","70","1591447","0.0-13.0-0.12","1","49136","","","","","58","1","2","0","NonInfo"
"","682","bandit-task-exp6","71","1614060","0.0-13.0-0.13","1","49136","","","","","59","2","2","73","NonInfo"
"","657","bandit-task-exp6","72","1637567","0.0-13.0-0.14","1","49136","","","","","60","2","1","0","NonInfo"
"","1858","html-button-response","73","1639427","0.0-14.0","1","49136","<p> Congratulations, you have finished the main part of the experiment. </p><p>Before you finish, we have a few short questions about the options and outcomes you saw in the task.</p>","0","","","","","","",""
"","11830.545000033453","survey-text","74","1651262","0.0-15.0","1","49136","","","","{""undefined"":""80""}","","","","",""
"","3718.0550000048243","survey-text","75","1654983","0.0-16.0","1","49136","","","","{""undefined"":""100""}","","","","",""
"","14199.745000049006","survey-text","76","1669189","0.0-17.0","1","49136","","","","{""undefined"":""A3QSFE6GKO157S""}","","","","",""
"","14017","html-button-response","77","1683208","0.0-18.0","1","49136","<p><b>The task is now finished</b></p>Copy the following code:  <b>49136</b></br><p>This is your HIT which you will need to receive payment via mTurk.</p><p><b>Thank you for taking part and completing the experiment!</b></p>","0","","","","","","",""
