"view_history","rt","trial_type","trial_index","time_elapsed","internal_node_id","condition","PID","stimulus","button_pressed","key_press","responses","banditTrial","choice","cue","feedback","magnit"
"[{""page_index"":0,""viewing_time"":9461}]","9463","instructions","0","9471","0.0-0.0","1","896","","","","","","","","",""
"","14474","html-button-response","1","23949","0.0-1.0","1","896","<p>This experiment is now online instead of in-person in a controlled computer lab due to the current COVID-19 pandemic.</br> Please focus on the experiment and refrain from activities such as:</p>- <b>switching to other tabs on your browser (this will be monitored via the experiment)</br> - going on your mobile phone/cell phone</br> - communicating with others</br></br></b><p>This way you are helping to provide data that is useful for psychological research.</p>","0","","","","","","",""
"","2551","html-keyboard-response","2","26503","0.0-2.0","1","896","<p>Welcome to the experiment.</p><p>Press the SPACE bar to continue</p>","","32","","","","","",""
"","4152.9549999395385","survey-text","3","30671","0.0-3.0","1","896","","","","{""undefined"":""48""}","","","","",""
"","2577","survey-multi-choice","4","33254","0.0-4.0","1","896","","","","{""Q0"":""Male""}","","","","",""
"","11155","html-button-response","5","44413","0.0-5.0-0.0","1","896","<p> On each trial throughout the experiment you will choose between two options </br>a <b>Black Square </b> and <b> Black Triangle </b>, as seen below.</p><div><div style= 'float: left; width: 300px; margin: 10px 10px;'><img src= 'NWTKimg/square.png'></img></div><div style= 'float: right; width: 300px; margin: 10px 10px;'><img src= 'NWTKimg/triangle.png'></img></div></div><br/><br/><br/><br/><br/><br/><br/><br/><br/><br/><br/><p>Each option results in winning points or receiving 0 points.</br></br>There is a 50% chance of either winning or receiving 0 points, but you won't receive the outcome until after a <b> 20 second delay</b>.</p>","0","","","","","","",""
"","24436","html-button-response","6","68852","0.0-5.0-1.0","1","896","<img src= 'NWTKimg/NonInfoDiagram.png'></img><p>As seen above, whether you choose the square or triangle, you will receive a coloured circle after the choice. </p> <p>This circle will be on screen for 20 seconds until you win points or receive 0 points.</p><p>The coloured circle depends on which option you chose. </br> In the above example, choosing a triangle leads to a green circle and choosing the square leads to a red circle.</p>Please note, the circles in your task will be different to the above colours.</br></br>","0","","","","","","",""
"","229665","html-button-response","7","298520","0.0-5.0-2.0","1","896","<p> There will be <b>four blocks</b> in the experiment.</br>You will be given a short 15 second break between each block.</p><p><b>The points and the options will remain the same between the blocks.</b></p>The blocks are there just to give you a small break.</br></br></br></br><p>The points you earn in the task are also equal to <b> actual money</b>.</br> <b>1000 points is equal to $1 USD</b></p><p>This is the rate you will be paid at the experiment's end.","0","","","","","","",""
"","7882","survey-multi-choice","8","306408","0.0-5.0-3.0","1","896","","","","{""Q0"":""20 Seconds"",""Q1"":""True""}","","","","",""
"","3139","html-button-response","9","309551","0.0-6.0","1","896","<p> The experiment is about to start. <br/> Click start to continue, or email your researcher <b>(j.embrey@unsw.edu.au)</b> if you have any questions before starting.","0","","","","","","",""
"","1657","bandit-task-exp6","10","333519","0.0-7.0-0.0","1","896","","","","","1","1","2","0","NonInfo"
"","1859","bandit-task-exp6","11","358582","0.0-7.0-0.1","1","896","","","","","2","2","2","72","NonInfo"
"","1115","bandit-task-exp6","12","383453","0.0-7.0-0.2","1","896","","","","","3","2","2","75","NonInfo"
"","1011","bandit-task-exp6","13","408078","0.0-7.0-0.3","1","896","","","","","4","2","2","78","NonInfo"
"","930","bandit-task-exp6","14","431629","0.0-7.0-0.4","1","896","","","","","5","2","1","0","NonInfo"
"","1306","bandit-task-exp6","15","456756","0.0-7.0-0.5","1","896","","","","","6","2","2","84","NonInfo"
"","2074","bandit-task-exp6","16","482252","0.0-7.0-0.6","1","896","","","","","7","2","1","0","NonInfo"
"","786","bandit-task-exp6","17","508707","0.0-7.0-0.7","1","896","","","","","8","1","1","124","NonInfo"
"","1267","bandit-task-exp6","18","535163","0.0-7.0-0.8","1","896","","","","","9","1","1","112","NonInfo"
"","1345","bandit-task-exp6","19","559490","0.0-7.0-0.9","1","896","","","","","10","1","1","129","NonInfo"
"","823","bandit-task-exp6","20","584249","0.0-7.0-0.10","1","896","","","","","11","1","2","0","NonInfo"
"","761","bandit-task-exp6","21","607985","0.0-7.0-0.11","1","896","","","","","12","1","1","118","NonInfo"
"","689","bandit-task-exp6","22","631560","0.0-7.0-0.12","1","896","","","","","13","1","2","0","NonInfo"
"","681","bandit-task-exp6","23","655489","0.0-7.0-0.13","1","896","","","","","14","1","1","115","NonInfo"
"","6088","bandit-task-exp6","24","684456","0.0-7.0-0.14","1","896","","","","","15","1","2","0","NonInfo"
"","null","html-keyboard-response","25","699461","0.0-8.0","1","896","<p><b> Congratulations, you have finished this block. </b> </p><p>Please take a short break before moving onto the next block.</p><p>The next block will start after a 15 second break.</p><b>Remember, the point rewards are the same between blocks","","null","","","","","",""
"","2573","bandit-task-exp6","26","724255","0.0-9.0-0.0","1","896","","","","","16","1","2","0","NonInfo"
"","1540","bandit-task-exp6","27","748054","0.0-9.0-0.1","1","896","","","","","17","1","2","0","NonInfo"
"","867","bandit-task-exp6","28","771662","0.0-9.0-0.2","1","896","","","","","18","2","2","85","NonInfo"
"","723","bandit-task-exp6","29","794718","0.0-9.0-0.3","1","896","","","","","19","2","2","70","NonInfo"
"","1059","bandit-task-exp6","30","819462","0.0-9.0-0.4","1","896","","","","","20","1","1","123","NonInfo"
"","1598","bandit-task-exp6","31","843756","0.0-9.0-0.5","1","896","","","","","21","1","1","124","NonInfo"
"","812","bandit-task-exp6","32","866940","0.0-9.0-0.6","1","896","","","","","22","1","1","117","NonInfo"
"","2364","bandit-task-exp6","33","892531","0.0-9.0-0.7","1","896","","","","","23","1","1","125","NonInfo"
"","1171","bandit-task-exp6","34","918523","0.0-9.0-0.8","1","896","","","","","24","1","1","111","NonInfo"
"","963","bandit-task-exp6","35","941875","0.0-9.0-0.9","1","896","","","","","25","1","2","0","NonInfo"
"","1097","bandit-task-exp6","36","965322","0.0-9.0-0.10","1","896","","","","","26","1","2","0","NonInfo"
"","1220","bandit-task-exp6","37","990931","0.0-9.0-0.11","1","896","","","","","27","1","1","129","NonInfo"
"","1048","bandit-task-exp6","38","1014921","0.0-9.0-0.12","1","896","","","","","28","1","2","0","NonInfo"
"","994","bandit-task-exp6","39","1039057","0.0-9.0-0.13","1","896","","","","","29","1","2","0","NonInfo"
"","1092","bandit-task-exp6","40","1065280","0.0-9.0-0.14","1","896","","","","","30","2","2","86","NonInfo"
"","null","html-keyboard-response","41","1080285","0.0-10.0","1","896","<p><b> Congratulations, you have finished this block. </b> </p><p>Please take a short break before moving onto the next block.</p><p>The next block will start after a 15 second break.</p><b>Remember, the point rewards are the same between blocks","","null","","","","","",""
"","2485","bandit-task-exp6","42","1105680","0.0-11.0-0.0","1","896","","","","","31","2","2","84","NonInfo"
"","1145","bandit-task-exp6","43","1130047","0.0-11.0-0.1","1","896","","","","","32","1","2","0","NonInfo"
"","1177","bandit-task-exp6","44","1154190","0.0-11.0-0.2","1","896","","","","","33","2","2","89","NonInfo"
"","1698","bandit-task-exp6","45","1178710","0.0-11.0-0.3","1","896","","","","","34","2","2","77","NonInfo"
"","801","bandit-task-exp6","46","1202389","0.0-11.0-0.4","1","896","","","","","35","2","2","82","NonInfo"
"","1139","bandit-task-exp6","47","1227965","0.0-11.0-0.5","1","896","","","","","36","2","2","86","NonInfo"
"","1218","bandit-task-exp6","48","1256220","0.0-11.0-0.6","1","896","","","","","37","1","1","123","NonInfo"
"","1027","bandit-task-exp6","49","1280709","0.0-11.0-0.7","1","896","","","","","38","1","2","0","NonInfo"
"","761","bandit-task-exp6","50","1306676","0.0-11.0-0.8","1","896","","","","","39","1","1","121","NonInfo"
"","1225","bandit-task-exp6","51","1331659","0.0-11.0-0.9","1","896","","","","","40","1","2","0","NonInfo"
"","875","bandit-task-exp6","52","1360746","0.0-11.0-0.10","1","896","","","","","41","1","2","0","NonInfo"
"","1106","bandit-task-exp6","53","1387330","0.0-11.0-0.11","1","896","","","","","42","1","2","0","NonInfo"
"","827","bandit-task-exp6","54","1413818","0.0-11.0-0.12","1","896","","","","","43","2","2","78","NonInfo"
"","851","bandit-task-exp6","55","1438129","0.0-11.0-0.13","1","896","","","","","44","2","2","71","NonInfo"
"","964","bandit-task-exp6","56","1462192","0.0-11.0-0.14","1","896","","","","","45","2","1","0","NonInfo"
"","null","html-keyboard-response","57","1477196","0.0-12.0","1","896","<p><b> Congratulations, you have finished this block. </b> </p><p>Please take a short break before moving onto the next block.</p><p>The next block will start after a 15 second break.</p><b>Remember, the point rewards are the same between blocks","","null","","","","","",""
"","8975","bandit-task-exp6","58","1509303","0.0-13.0-0.0","1","896","","","","","46","2","2","89","NonInfo"
"","771","bandit-task-exp6","59","1538510","0.0-13.0-0.1","1","896","","","","","47","2","2","80","NonInfo"
"","1596","bandit-task-exp6","60","1565390","0.0-13.0-0.2","1","896","","","","","48","1","1","111","NonInfo"
"","722","bandit-task-exp6","61","1589589","0.0-13.0-0.3","1","896","","","","","49","1","2","0","NonInfo"
"","690","bandit-task-exp6","62","1614533","0.0-13.0-0.4","1","896","","","","","50","1","2","0","NonInfo"
"","1187","bandit-task-exp6","63","1638797","0.0-13.0-0.5","1","896","","","","","51","1","2","0","NonInfo"
"","922","bandit-task-exp6","64","1662172","0.0-13.0-0.6","1","896","","","","","52","1","1","124","NonInfo"
"","938","bandit-task-exp6","65","1695755","0.0-13.0-0.7","1","896","","","","","53","1","2","0","NonInfo"
"","715","bandit-task-exp6","66","1719459","0.0-13.0-0.8","1","896","","","","","54","1","2","0","NonInfo"
"","942","bandit-task-exp6","67","1743570","0.0-13.0-0.9","1","896","","","","","55","2","1","0","NonInfo"
"","1043","bandit-task-exp6","68","1767938","0.0-13.0-0.10","1","896","","","","","56","1","1","117","NonInfo"
"","947","bandit-task-exp6","69","1793562","0.0-13.0-0.11","1","896","","","","","57","1","1","111","NonInfo"
"","1090","bandit-task-exp6","70","1817953","0.0-13.0-0.12","1","896","","","","","58","1","2","0","NonInfo"
"","714","bandit-task-exp6","71","1850425","0.0-13.0-0.13","1","896","","","","","59","1","2","0","NonInfo"
"","1058","bandit-task-exp6","72","1875665","0.0-13.0-0.14","1","896","","","","","60","1","2","0","NonInfo"
"","4196","html-button-response","73","1879865","0.0-14.0","1","896","<p> Congratulations, you have finished the main part of the experiment. </p><p>Before you finish, we have a few short questions about the options and outcomes you saw in the task.</p>","0","","","","","","",""
"","17182.20999999903","survey-text","74","1897057","0.0-15.0","1","896","","","","{""undefined"":""78""}","","","","",""
"","7159.020000020973","survey-text","75","1904224","0.0-16.0","1","896","","","","{""undefined"":""115""}","","","","",""
"","5761.025000014342","survey-text","76","1909992","0.0-17.0","1","896","","","","{""undefined"":""AAXX5LDVJ32F8""}","","","","",""
"","18947","html-button-response","77","1928943","0.0-18.0","1","896","<p><b>The task is now finished</b></p>Copy the following code:  <b>896</b></br><p>This is your HIT which you will need to receive payment via mTurk.</p><p><b>Thank you for taking part and completing the experiment!</b></p>","0","","","","","","",""
