"view_history","rt","trial_type","trial_index","time_elapsed","internal_node_id","condition","PID","stimulus","button_pressed","key_press","responses","banditTrial","choice","cue","feedback","magnit"
"[{""page_index"":0,""viewing_time"":5676}]","5678","instructions","0","5688","0.0-0.0","0","89469","","","","","","","","",""
"","13977","html-button-response","1","19672","0.0-1.0","0","89469","<p>This experiment is now online instead of in-person in a controlled computer lab due to the current COVID-19 pandemic.</br> Please focus on the experiment and refrain from activities such as:</p>- <b>switching to other tabs on your browser (this will be monitored via the experiment)</br> - going on your mobile phone/cell phone</br> - communicating with others</br></br></b><p>This way you are helping to provide data that is useful for psychological research.</p>","0","","","","","","",""
"","866","html-keyboard-response","2","20541","0.0-2.0","0","89469","<p>Welcome to the experiment.</p><p>Press the SPACE bar to continue</p>","","32","","","","","",""
"","2558.2000000285916","survey-text","3","23107","0.0-3.0","0","89469","","","","{""undefined"":""35""}","","","","",""
"","2224","survey-multi-choice","4","25336","0.0-4.0","0","89469","","","","{""Q0"":""Female""}","","","","",""
"","18682","html-button-response","5","44023","0.0-5.0-0.0","0","89469","<p> On each trial throughout the experiment you will choose between the options </br><b> Find Out Now </b> and <b> Keep It Secret </b>, as seen below.</p><div><div style= 'float: left; width: 300px; margin: 10px 10px;'><img src= 'NWTKimg/KeepItSecret.jpg'></img></div><div style= 'float: right; width: 300px; margin: 10px 10px;'><img src= 'NWTKimg/FindOutNow.jpg'></img></div></div><br/><br/><br/><br/><br/><br/><br/><br/><br/><br/><br/><p>Each option results in winning points or receiving 0 points.</br>There is a 50% chance of either winning or receiving 0 points, but you won't receive the outcome until after a <b> 20 second delay</b>.</p><p>You can however gain information about the outcome as the two options, Find Out Now & Keep It Secret, suggest. </p>","0","","","","","","",""
"","31123","html-button-response","6","75150","0.0-5.0-1.0","0","89469","<img src= 'cues/Experiment6.png'></img><p>As seen above, when choosing the <b>'Find Out Now'</b> option, you will receive either a happy face or sad face.</br>The happy face means you will win points after the delay, whereas the sad face means you will receive 0 points.</br></p><p> When choosing the <b> 'Keep it Secret' </b> option you will receive a confused face.</br> This face appears regardless of whether you are going to win points or not. </p>In short, choosing 'Find Out Now' allows you to find out the outcome before you experience it (after the delay).</br></br>","0","","","","","","",""
"","15755","html-button-response","7","90908","0.0-5.0-2.0","0","89469","<p> There will be <b>four blocks</b> in the experiment.</br>You will be given a short 15 second break between each block.</p><p><b>The points and the options will remain the same between the blocks.</b></p>The blocks are there just to give you a small break.</br></br><p>The points you earn in the task are also equal to <b> actual money</b>.</br> <b>1000 points is equal to $1 USD</b></p><p>This is the rate you will be paid at the experiment's end.","0","","","","","","",""
"","10141","survey-multi-choice","8","101058","0.0-5.0-3.0","0","89469","","","","{""Q0"":""20 Seconds"",""Q1"":""True"",""Q2"":""True""}","","","","",""
"","2496","html-button-response","9","103560","0.0-6.0","0","89469","<p> The experiment is about to start. <br/> Click start to continue, or email your researcher <b>(j.embrey@unsw.edu.au)</b> if you have any questions before starting.","0","","","","","","",""
"","5818","bandit-task-exp6","10","131302","0.0-7.0-0.0","0","89469","","","","","1","2","1","0","Informative"
"","1120","bandit-task-exp6","11","154844","0.0-7.0-0.1","0","89469","","","","","2","1","1","114","Informative"
"","1399","bandit-task-exp6","12","179991","0.0-7.0-0.2","0","89469","","","","","3","2","2","70","Informative"
"","774","bandit-task-exp6","13","203675","0.0-7.0-0.3","0","89469","","","","","4","2","2","75","Informative"
"","618","bandit-task-exp6","14","226294","0.0-7.0-0.4","0","89469","","","","","5","1","1","122","Informative"
"","936","bandit-task-exp6","15","250194","0.0-7.0-0.5","0","89469","","","","","6","1","1","111","Informative"
"","470","bandit-task-exp6","16","273553","0.0-7.0-0.6","0","89469","","","","","7","1","1","130","Informative"
"","1830","bandit-task-exp6","17","297535","0.0-7.0-0.7","0","89469","","","","","8","2","2","78","Informative"
"","642","bandit-task-exp6","18","322110","0.0-7.0-0.8","0","89469","","","","","9","2","2","74","Informative"
"","2097","bandit-task-exp6","19","347551","0.0-7.0-0.9","0","89469","","","","","10","1","1","128","Informative"
"","1811","bandit-task-exp6","20","371492","0.0-7.0-0.10","0","89469","","","","","11","1","2","0","Informative"
"","1390","bandit-task-exp6","21","406933","0.0-7.0-0.11","0","89469","","","","","12","1","1","126","Informative"
"","830","bandit-task-exp6","22","429952","0.0-7.0-0.12","0","89469","","","","","13","1","2","0","Informative"
"","754","bandit-task-exp6","23","453020","0.0-7.0-0.13","0","89469","","","","","14","2","2","72","Informative"
"","1131","bandit-task-exp6","24","476280","0.0-7.0-0.14","0","89469","","","","","15","2","2","76","Informative"
"","null","html-keyboard-response","25","491756","0.0-8.0","0","89469","<p><b> Congratulations, you have finished this block. </b> </p><p>Please take a short break before moving onto the next block.</p><p>The next block will start after a 15 second break.</p><b>Remember, the point rewards are the same between blocks","","null","","","","","",""
"","12909","bandit-task-exp6","26","528308","0.0-9.0-0.0","0","89469","","","","","16","1","1","122","Informative"
"","1367","bandit-task-exp6","27","551743","0.0-9.0-0.1","0","89469","","","","","17","1","2","0","Informative"
"","1729","bandit-task-exp6","28","582407","0.0-9.0-0.2","0","89469","","","","","18","2","2","82","Informative"
"","1170","bandit-task-exp6","29","606098","0.0-9.0-0.3","0","89469","","","","","19","2","2","75","Informative"
"","560","bandit-task-exp6","30","628587","0.0-9.0-0.4","0","89469","","","","","20","1","1","123","Informative"
"","910","bandit-task-exp6","31","652123","0.0-9.0-0.5","0","89469","","","","","21","1","1","116","Informative"
"","764","bandit-task-exp6","32","675195","0.0-9.0-0.6","0","89469","","","","","22","1","2","0","Informative"
"","1724","bandit-task-exp6","33","699253","0.0-9.0-0.7","0","89469","","","","","23","1","2","0","Informative"
"","1306","bandit-task-exp6","34","723048","0.0-9.0-0.8","0","89469","","","","","24","1","1","114","Informative"
"","1098","bandit-task-exp6","35","747085","0.0-9.0-0.9","0","89469","","","","","25","1","1","124","Informative"
"","1983","bandit-task-exp6","36","771678","0.0-9.0-0.10","0","89469","","","","","26","1","2","0","Informative"
"","1501","bandit-task-exp6","37","798034","0.0-9.0-0.11","0","89469","","","","","27","2","1","0","Informative"
"","2673","bandit-task-exp6","38","826781","0.0-9.0-0.12","0","89469","","","","","28","1","1","112","Informative"
"","9556","bandit-task-exp6","39","858439","0.0-9.0-0.13","0","89469","","","","","29","1","2","0","Informative"
"","2438","bandit-task-exp6","40","885357","0.0-9.0-0.14","0","89469","","","","","30","1","1","123","Informative"
"","null","html-keyboard-response","41","900363","0.0-10.0","0","89469","<p><b> Congratulations, you have finished this block. </b> </p><p>Please take a short break before moving onto the next block.</p><p>The next block will start after a 15 second break.</p><b>Remember, the point rewards are the same between blocks","","null","","","","","",""
"","2235","bandit-task-exp6","42","924770","0.0-11.0-0.0","0","89469","","","","","31","1","2","0","Informative"
"","1308","bandit-task-exp6","43","949156","0.0-11.0-0.1","0","89469","","","","","32","1","1","111","Informative"
"","1008","bandit-task-exp6","44","978072","0.0-11.0-0.2","0","89469","","","","","33","1","1","111","Informative"
"","1111","bandit-task-exp6","45","1000880","0.0-11.0-0.3","0","89469","","","","","34","1","1","121","Informative"
"","854","bandit-task-exp6","46","1023516","0.0-11.0-0.4","0","89469","","","","","35","1","2","0","Informative"
"","1554","bandit-task-exp6","47","1050359","0.0-11.0-0.5","0","89469","","","","","36","1","1","120","Informative"
"","1983","bandit-task-exp6","48","1075301","0.0-11.0-0.6","0","89469","","","","","37","1","2","0","Informative"
"","1591","bandit-task-exp6","49","1099172","0.0-11.0-0.7","0","89469","","","","","38","1","2","0","Informative"
"","1428","bandit-task-exp6","50","1122757","0.0-11.0-0.8","0","89469","","","","","39","1","1","125","Informative"
"","1289","bandit-task-exp6","51","1148877","0.0-11.0-0.9","0","89469","","","","","40","1","2","0","Informative"
"","1600","bandit-task-exp6","52","1172524","0.0-11.0-0.10","0","89469","","","","","41","1","2","0","Informative"
"","988","bandit-task-exp6","53","1198286","0.0-11.0-0.11","0","89469","","","","","42","2","1","0","Informative"
"","1112","bandit-task-exp6","54","1221373","0.0-11.0-0.12","0","89469","","","","","43","1","1","111","Informative"
"","1494","bandit-task-exp6","55","1252501","0.0-11.0-0.13","0","89469","","","","","44","1","1","114","Informative"
"","1290","bandit-task-exp6","56","1276542","0.0-11.0-0.14","0","89469","","","","","45","1","1","119","Informative"
"","null","html-keyboard-response","57","1291547","0.0-12.0","0","89469","<p><b> Congratulations, you have finished this block. </b> </p><p>Please take a short break before moving onto the next block.</p><p>The next block will start after a 15 second break.</p><b>Remember, the point rewards are the same between blocks","","null","","","","","",""
"","1971","bandit-task-exp6","58","1318080","0.0-13.0-0.0","0","89469","","","","","46","1","1","122","Informative"
"","1153","bandit-task-exp6","59","1341482","0.0-13.0-0.1","0","89469","","","","","47","1","2","0","Informative"
"","1372","bandit-task-exp6","60","1365986","0.0-13.0-0.2","0","89469","","","","","48","1","2","0","Informative"
"","1458","bandit-task-exp6","61","1389598","0.0-13.0-0.3","0","89469","","","","","49","1","2","0","Informative"
"","1097","bandit-task-exp6","62","1413073","0.0-13.0-0.4","0","89469","","","","","50","1","2","0","Informative"
"","957","bandit-task-exp6","63","1436650","0.0-13.0-0.5","0","89469","","","","","51","1","1","113","Informative"
"","1625","bandit-task-exp6","64","1460373","0.0-13.0-0.6","0","89469","","","","","52","1","2","0","Informative"
"","894","bandit-task-exp6","65","1486217","0.0-13.0-0.7","0","89469","","","","","53","1","2","0","Informative"
"","1552","bandit-task-exp6","66","1511019","0.0-13.0-0.8","0","89469","","","","","54","1","1","115","Informative"
"","1123","bandit-task-exp6","67","1534095","0.0-13.0-0.9","0","89469","","","","","55","1","2","0","Informative"
"","4610","bandit-task-exp6","68","1560546","0.0-13.0-0.10","0","89469","","","","","56","1","1","118","Informative"
"","690","bandit-task-exp6","69","1583388","0.0-13.0-0.11","0","89469","","","","","57","1","2","0","Informative"
"","748","bandit-task-exp6","70","1606059","0.0-13.0-0.12","0","89469","","","","","58","1","2","0","Informative"
"","861","bandit-task-exp6","71","1629748","0.0-13.0-0.13","0","89469","","","","","59","1","1","130","Informative"
"","1608","bandit-task-exp6","72","1654058","0.0-13.0-0.14","0","89469","","","","","60","1","1","110","Informative"
"","2106","html-button-response","73","1656169","0.0-14.0","0","89469","<p> Congratulations, you have finished the main part of the experiment. </p><p>Before you finish, we have a few short questions about the options and outcomes you saw in the task.</p>","0","","","","","","",""
"","7034.199999994598","survey-text","74","1663212","0.0-15.0","0","89469","","","","{""undefined"":""78""}","","","","",""
"","5350.230000040028","survey-text","75","1668570","0.0-16.0","0","89469","","","","{""undefined"":""110""}","","","","",""
"","10405.870000016876","survey-text","76","1678983","0.0-17.0","0","89469","","","","{""undefined"":""A3QRZPJT2CT2IK""}","","","","",""
"","599290","html-button-response","77","2278279","0.0-18.0","0","89469","<p><b>The task is now finished</b></p>Copy the following code:  <b>89469</b></br><p>This is your HIT which you will need to receive payment via mTurk.</p><p><b>Thank you for taking part and completing the experiment!</b></p>","0","","","","","","",""
