"view_history","rt","trial_type","trial_index","time_elapsed","internal_node_id","condition","PID","stimulus","button_pressed","key_press","responses","banditTrial","choice","cue","feedback","magnit"
"[{""page_index"":0,""viewing_time"":11164}]","11166","instructions","0","11177","0.0-0.0","1","85855","","","","","","","","",""
"","1132","html-button-response","1","12318","0.0-1.0","1","85855","<p>This experiment is now online instead of in-person in a controlled computer lab due to the current COVID-19 pandemic.</br> Please focus on the experiment and refrain from activities such as:</p>- <b>switching to other tabs on your browser (this will be monitored via the experiment)</br> - going on your mobile phone/cell phone</br> - communicating with others</br></br></b><p>This way you are helping to provide data that is useful for psychological research.</p>","0","","","","","","",""
"","1578","html-keyboard-response","2","13901","0.0-2.0","1","85855","<p>Welcome to the experiment.</p><p>Press the SPACE bar to continue</p>","","32","","","","","",""
"","4209.135000004608","survey-text","3","18120","0.0-3.0","1","85855","","","","{""undefined"":""26""}","","","","",""
"","4106","survey-multi-choice","4","22237","0.0-4.0","1","85855","","","","{""Q0"":""Male""}","","","","",""
"","1646","html-button-response","5","23891","0.0-5.0-0.0","1","85855","<p> On each trial throughout the experiment you will choose between two options </br>a <b>Black Square </b> and <b> Black Triangle </b>, as seen below.</p><div><div style= 'float: left; width: 300px; margin: 10px 10px;'><img src= 'NWTKimg/square.png'></img></div><div style= 'float: right; width: 300px; margin: 10px 10px;'><img src= 'NWTKimg/triangle.png'></img></div></div><br/><br/><br/><br/><br/><br/><br/><br/><br/><br/><br/><p>Each option results in winning points or receiving 0 points.</br></br>There is a 50% chance of either winning or receiving 0 points, but you won't receive the outcome until after a <b> 20 second delay</b>.</p>","0","","","","","","",""
"","3230","html-button-response","6","27127","0.0-5.0-1.0","1","85855","<img src= 'NWTKimg/NonInfoDiagram.png'></img><p>As seen above, whether you choose the square or triangle, you will receive a coloured circle after the choice. </p> <p>This circle will be on screen for 20 seconds until you win points or receive 0 points.</p><p>The coloured circle depends on which option you chose. </br> In the above example, choosing a triangle leads to a green circle and choosing the square leads to a red circle.</p>Please note, the circles in your task will be different to the above colours.</br></br>","0","","","","","","",""
"","30283","html-button-response","7","57416","0.0-5.0-2.0","1","85855","<p> There will be <b>four blocks</b> in the experiment.</br>You will be given a short 15 second break between each block.</p><p><b>The points and the options will remain the same between the blocks.</b></p>The blocks are there just to give you a small break.</br></br></br></br><p>The points you earn in the task are also equal to <b> actual money</b>.</br> <b>1000 points is equal to $1 USD</b></p><p>This is the rate you will be paid at the experiment's end.","0","","","","","","",""
"","4863","survey-multi-choice","8","62286","0.0-5.0-3.0","1","85855","","","","{""Q0"":""20 Seconds"",""Q1"":""True""}","","","","",""
"","1022","html-button-response","9","63311","0.0-6.0","1","85855","<p> The experiment is about to start. <br/> Click start to continue, or email your researcher <b>(j.embrey@unsw.edu.au)</b> if you have any questions before starting.","0","","","","","","",""
"","1232","bandit-task-exp6","10","87356","0.0-7.0-0.0","1","85855","","","","","1","1","1","115","NonInfo"
"","901","bandit-task-exp6","11","110290","0.0-7.0-0.1","1","85855","","","","","2","2","1","0","NonInfo"
"","5520","bandit-task-exp6","12","137903","0.0-7.0-0.2","1","85855","","","","","3","2","2","82","NonInfo"
"","2128","bandit-task-exp6","13","162091","0.0-7.0-0.3","1","85855","","","","","4","1","1","123","NonInfo"
"","2272","bandit-task-exp6","14","187525","0.0-7.0-0.4","1","85855","","","","","5","2","2","86","NonInfo"
"","2076","bandit-task-exp6","15","212343","0.0-7.0-0.5","1","85855","","","","","6","2","2","75","NonInfo"
"","2022","bandit-task-exp6","16","237003","0.0-7.0-0.6","1","85855","","","","","7","1","1","119","NonInfo"
"","1527","bandit-task-exp6","17","260649","0.0-7.0-0.7","1","85855","","","","","8","2","2","88","NonInfo"
"","702","bandit-task-exp6","18","283848","0.0-7.0-0.8","1","85855","","","","","9","2","1","0","NonInfo"
"","607","bandit-task-exp6","19","306621","0.0-7.0-0.9","1","85855","","","","","10","2","2","86","NonInfo"
"","886","bandit-task-exp6","20","329777","0.0-7.0-0.10","1","85855","","","","","11","1","1","122","NonInfo"
"","797","bandit-task-exp6","21","356517","0.0-7.0-0.11","1","85855","","","","","12","1","1","122","NonInfo"
"","740","bandit-task-exp6","22","379720","0.0-7.0-0.12","1","85855","","","","","13","1","1","110","NonInfo"
"","591","bandit-task-exp6","23","403212","0.0-7.0-0.13","1","85855","","","","","14","2","1","0","NonInfo"
"","1098","bandit-task-exp6","24","426575","0.0-7.0-0.14","1","85855","","","","","15","1","1","124","NonInfo"
"","null","html-keyboard-response","25","441586","0.0-8.0","1","85855","<p><b> Congratulations, you have finished this block. </b> </p><p>Please take a short break before moving onto the next block.</p><p>The next block will start after a 15 second break.</p><b>Remember, the point rewards are the same between blocks","","null","","","","","",""
"","1652","bandit-task-exp6","26","465470","0.0-9.0-0.0","1","85855","","","","","16","2","2","87","NonInfo"
"","870","bandit-task-exp6","27","488499","0.0-9.0-0.1","1","85855","","","","","17","1","1","125","NonInfo"
"","534","bandit-task-exp6","28","513198","0.0-9.0-0.2","1","85855","","","","","18","2","1","0","NonInfo"
"","661","bandit-task-exp6","29","536851","0.0-9.0-0.3","1","85855","","","","","19","1","2","0","NonInfo"
"","785","bandit-task-exp6","30","564062","0.0-9.0-0.4","1","85855","","","","","20","1","1","116","NonInfo"
"","1277","bandit-task-exp6","31","588845","0.0-9.0-0.5","1","85855","","","","","21","1","2","0","NonInfo"
"","894","bandit-task-exp6","32","613182","0.0-9.0-0.6","1","85855","","","","","22","1","2","0","NonInfo"
"","1110","bandit-task-exp6","33","638485","0.0-9.0-0.7","1","85855","","","","","23","1","2","0","NonInfo"
"","990","bandit-task-exp6","34","663168","0.0-9.0-0.8","1","85855","","","","","24","1","2","0","NonInfo"
"","852","bandit-task-exp6","35","687469","0.0-9.0-0.9","1","85855","","","","","25","1","1","110","NonInfo"
"","966","bandit-task-exp6","36","711078","0.0-9.0-0.10","1","85855","","","","","26","1","1","125","NonInfo"
"","854","bandit-task-exp6","37","735701","0.0-9.0-0.11","1","85855","","","","","27","1","2","0","NonInfo"
"","3562","bandit-task-exp6","38","767561","0.0-9.0-0.12","1","85855","","","","","28","1","1","112","NonInfo"
"","875","bandit-task-exp6","39","792596","0.0-9.0-0.13","1","85855","","","","","29","1","1","122","NonInfo"
"","2105","bandit-task-exp6","40","817120","0.0-9.0-0.14","1","85855","","","","","30","1","2","0","NonInfo"
"","null","html-keyboard-response","41","832129","0.0-10.0","1","85855","<p><b> Congratulations, you have finished this block. </b> </p><p>Please take a short break before moving onto the next block.</p><p>The next block will start after a 15 second break.</p><b>Remember, the point rewards are the same between blocks","","null","","","","","",""
"","2819","bandit-task-exp6","42","857187","0.0-11.0-0.0","1","85855","","","","","31","1","2","0","NonInfo"
"","760","bandit-task-exp6","43","880425","0.0-11.0-0.1","1","85855","","","","","32","1","1","127","NonInfo"
"","852","bandit-task-exp6","44","903514","0.0-11.0-0.2","1","85855","","","","","33","1","2","0","NonInfo"
"","1082","bandit-task-exp6","45","926833","0.0-11.0-0.3","1","85855","","","","","34","1","1","128","NonInfo"
"","687","bandit-task-exp6","46","949459","0.0-11.0-0.4","1","85855","","","","","35","1","1","127","NonInfo"
"","895","bandit-task-exp6","47","973229","0.0-11.0-0.5","1","85855","","","","","36","1","2","0","NonInfo"
"","906","bandit-task-exp6","48","997765","0.0-11.0-0.6","1","85855","","","","","37","1","1","116","NonInfo"
"","724","bandit-task-exp6","49","1029207","0.0-11.0-0.7","1","85855","","","","","38","1","2","0","NonInfo"
"","890","bandit-task-exp6","50","1052533","0.0-11.0-0.8","1","85855","","","","","39","1","1","114","NonInfo"
"","938","bandit-task-exp6","51","1076565","0.0-11.0-0.9","1","85855","","","","","40","1","1","119","NonInfo"
"","2082","bandit-task-exp6","52","1101618","0.0-11.0-0.10","1","85855","","","","","41","1","2","0","NonInfo"
"","3121","bandit-task-exp6","53","1128393","0.0-11.0-0.11","1","85855","","","","","42","1","1","126","NonInfo"
"","2665","bandit-task-exp6","54","1153162","0.0-11.0-0.12","1","85855","","","","","43","1","1","118","NonInfo"
"","2476","bandit-task-exp6","55","1182315","0.0-11.0-0.13","1","85855","","","","","44","1","2","0","NonInfo"
"","552","bandit-task-exp6","56","1205306","0.0-11.0-0.14","1","85855","","","","","45","1","2","0","NonInfo"
"","null","html-keyboard-response","57","1220314","0.0-12.0","1","85855","<p><b> Congratulations, you have finished this block. </b> </p><p>Please take a short break before moving onto the next block.</p><p>The next block will start after a 15 second break.</p><b>Remember, the point rewards are the same between blocks","","null","","","","","",""
"","10153","bandit-task-exp6","58","1252344","0.0-13.0-0.0","1","85855","","","","","46","1","1","112","NonInfo"
"","935","bandit-task-exp6","59","1275825","0.0-13.0-0.1","1","85855","","","","","47","1","1","126","NonInfo"
"","814","bandit-task-exp6","60","1298945","0.0-13.0-0.2","1","85855","","","","","48","1","1","116","NonInfo"
"","1011","bandit-task-exp6","61","1324247","0.0-13.0-0.3","1","85855","","","","","49","1","2","0","NonInfo"
"","715","bandit-task-exp6","62","1355018","0.0-13.0-0.4","1","85855","","","","","50","1","2","0","NonInfo"
"","1191","bandit-task-exp6","63","1378420","0.0-13.0-0.5","1","85855","","","","","51","1","1","112","NonInfo"
"","558","bandit-task-exp6","64","1401068","0.0-13.0-0.6","1","85855","","","","","52","1","1","127","NonInfo"
"","1513","bandit-task-exp6","65","1425855","0.0-13.0-0.7","1","85855","","","","","53","1","1","126","NonInfo"
"","948","bandit-task-exp6","66","1449185","0.0-13.0-0.8","1","85855","","","","","54","1","2","0","NonInfo"
"","1343","bandit-task-exp6","67","1472656","0.0-13.0-0.9","1","85855","","","","","55","1","2","0","NonInfo"
"","1597","bandit-task-exp6","68","1499454","0.0-13.0-0.10","1","85855","","","","","56","1","1","114","NonInfo"
"","1621","bandit-task-exp6","69","1523787","0.0-13.0-0.11","1","85855","","","","","57","1","1","116","NonInfo"
"","704","bandit-task-exp6","70","1546824","0.0-13.0-0.12","1","85855","","","","","58","1","2","0","NonInfo"
"","689","bandit-task-exp6","71","1569751","0.0-13.0-0.13","1","85855","","","","","59","1","1","117","NonInfo"
"","882","bandit-task-exp6","72","1592657","0.0-13.0-0.14","1","85855","","","","","60","1","2","0","NonInfo"
"","1564","html-button-response","73","1594226","0.0-14.0","1","85855","<p> Congratulations, you have finished the main part of the experiment. </p><p>Before you finish, we have a few short questions about the options and outcomes you saw in the task.</p>","0","","","","","","",""
"","4685.1699999971315","survey-text","74","1598918","0.0-15.0","1","85855","","","","{""undefined"":""30""}","","","","",""
"","5231.590000003111","survey-text","75","1604162","0.0-16.0","1","85855","","","","{""undefined"":""70""}","","","","",""
"","14044.774999994785","survey-text","76","1618221","0.0-17.0","1","85855","","","","{""undefined"":""A141YARYU2HNQY""}","","","","",""
"","9443","html-button-response","77","1627667","0.0-18.0","1","85855","<p><b>The task is now finished</b></p>Copy the following code:  <b>85855</b></br><p>This is your HIT which you will need to receive payment via mTurk.</p><p><b>Thank you for taking part and completing the experiment!</b></p>","0","","","","","","",""
