"view_history","rt","trial_type","trial_index","time_elapsed","internal_node_id","condition","PID","stimulus","button_pressed","key_press","responses","banditTrial","choice","cue","feedback","magnit"
"[{""page_index"":0,""viewing_time"":47441}]","47444","instructions","0","47459","0.0-0.0","0","17602","","","","","","","","",""
"","13861","html-button-response","1","61330","0.0-1.0","0","17602","<p>This experiment is now online instead of in-person in a controlled computer lab due to the current COVID-19 pandemic.</br> Please focus on the experiment and refrain from activities such as:</p>- <b>switching to other tabs on your browser (this will be monitored via the experiment)</br> - going on your mobile phone/cell phone</br> - communicating with others</br></br></b><p>This way you are helping to provide data that is useful for psychological research.</p>","0","","","","","","",""
"","9445","html-keyboard-response","2","70780","0.0-2.0","0","17602","<p>Welcome to the experiment.</p><p>Press the SPACE bar to continue</p>","","32","","","","","",""
"","3564.2549999975017","survey-text","3","74357","0.0-3.0","0","17602","","","","{""undefined"":""50""}","","","","",""
"","2350","survey-multi-choice","4","76716","0.0-4.0","0","17602","","","","{""Q0"":""Male""}","","","","",""
"","34816","html-button-response","5","111539","0.0-5.0-0.0","0","17602","<p> On each trial throughout the experiment you will choose between the options </br><b> Find Out Now </b> and <b> Keep It Secret </b>, as seen below.</p><div><div style= 'float: left; width: 300px; margin: 10px 10px;'><img src= 'NWTKimg/KeepItSecret.jpg'></img></div><div style= 'float: right; width: 300px; margin: 10px 10px;'><img src= 'NWTKimg/FindOutNow.jpg'></img></div></div><br/><br/><br/><br/><br/><br/><br/><br/><br/><br/><br/><p>Each option results in winning points or receiving 0 points.</br>There is a 50% chance of either winning or receiving 0 points, but you won't receive the outcome until after a <b> 20 second delay</b>.</p><p>You can however gain information about the outcome as the two options, Find Out Now & Keep It Secret, suggest. </p>","0","","","","","","",""
"","35403","html-button-response","6","146948","0.0-5.0-1.0","0","17602","<img src= 'cues/Experiment6.png'></img><p>As seen above, when choosing the <b>'Find Out Now'</b> option, you will receive either a happy face or sad face.</br>The happy face means you will win points after the delay, whereas the sad face means you will receive 0 points.</br></p><p> When choosing the <b> 'Keep it Secret' </b> option you will receive a confused face.</br> This face appears regardless of whether you are going to win points or not. </p>In short, choosing 'Find Out Now' allows you to find out the outcome before you experience it (after the delay).</br></br>","0","","","","","","",""
"","17891","html-button-response","7","164845","0.0-5.0-2.0","0","17602","<p> There will be <b>four blocks</b> in the experiment.</br>You will be given a short 15 second break between each block.</p><p><b>The points and the options will remain the same between the blocks.</b></p>The blocks are there just to give you a small break.</br></br><p>The points you earn in the task are also equal to <b> actual money</b>.</br> <b>1000 points is equal to $1 USD</b></p><p>This is the rate you will be paid at the experiment's end.","0","","","","","","",""
"","11423","survey-multi-choice","8","176280","0.0-5.0-3.0","0","17602","","","","{""Q0"":""20 Seconds"",""Q1"":""True"",""Q2"":""True""}","","","","",""
"","2518","html-button-response","9","178805","0.0-6.0","0","17602","<p> The experiment is about to start. <br/> Click start to continue, or email your researcher <b>(j.embrey@unsw.edu.au)</b> if you have any questions before starting.","0","","","","","","",""
"","1606","bandit-task-exp6","10","202986","0.0-7.0-0.0","0","17602","","","","","1","1","2","0","Informative"
"","1330","bandit-task-exp6","11","226848","0.0-7.0-0.1","0","17602","","","","","2","2","2","77","Informative"
"","1228","bandit-task-exp6","12","250890","0.0-7.0-0.2","0","17602","","","","","3","1","2","0","Informative"
"","926","bandit-task-exp6","13","274306","0.0-7.0-0.3","0","17602","","","","","4","2","1","0","Informative"
"","845","bandit-task-exp6","14","297203","0.0-7.0-0.4","0","17602","","","","","5","2","1","0","Informative"
"","1141","bandit-task-exp6","15","327660","0.0-7.0-0.5","0","17602","","","","","6","1","1","113","Informative"
"","1286","bandit-task-exp6","16","351164","0.0-7.0-0.6","0","17602","","","","","7","2","1","0","Informative"
"","894","bandit-task-exp6","17","374901","0.0-7.0-0.7","0","17602","","","","","8","1","1","110","Informative"
"","1349","bandit-task-exp6","18","398407","0.0-7.0-0.8","0","17602","","","","","9","1","2","0","Informative"
"","590","bandit-task-exp6","19","421671","0.0-7.0-0.9","0","17602","","","","","10","1","1","129","Informative"
"","1337","bandit-task-exp6","20","445912","0.0-7.0-0.10","0","17602","","","","","11","2","2","81","Informative"
"","637","bandit-task-exp6","21","468831","0.0-7.0-0.11","0","17602","","","","","12","1","2","0","Informative"
"","693","bandit-task-exp6","22","492058","0.0-7.0-0.12","0","17602","","","","","13","1","1","120","Informative"
"","837","bandit-task-exp6","23","515323","0.0-7.0-0.13","0","17602","","","","","14","1","1","119","Informative"
"","532","bandit-task-exp6","24","538259","0.0-7.0-0.14","0","17602","","","","","15","1","1","129","Informative"
"","null","html-keyboard-response","25","553266","0.0-8.0","0","17602","<p><b> Congratulations, you have finished this block. </b> </p><p>Please take a short break before moving onto the next block.</p><p>The next block will start after a 15 second break.</p><b>Remember, the point rewards are the same between blocks","","null","","","","","",""
"","18760","bandit-task-exp6","26","594452","0.0-9.0-0.0","0","17602","","","","","16","1","1","114","Informative"
"","808","bandit-task-exp6","27","617478","0.0-9.0-0.1","0","17602","","","","","17","1","2","0","Informative"
"","1996","bandit-task-exp6","28","641654","0.0-9.0-0.2","0","17602","","","","","18","1","2","0","Informative"
"","1254","bandit-task-exp6","29","665199","0.0-9.0-0.3","0","17602","","","","","19","2","2","85","Informative"
"","771","bandit-task-exp6","30","688073","0.0-9.0-0.4","0","17602","","","","","20","2","1","0","Informative"
"","859","bandit-task-exp6","31","712193","0.0-9.0-0.5","0","17602","","","","","21","1","2","0","Informative"
"","1805","bandit-task-exp6","32","737674","0.0-9.0-0.6","0","17602","","","","","22","1","2","0","Informative"
"","1194","bandit-task-exp6","33","761539","0.0-9.0-0.7","0","17602","","","","","23","1","2","0","Informative"
"","791","bandit-task-exp6","34","784540","0.0-9.0-0.8","0","17602","","","","","24","2","1","0","Informative"
"","795","bandit-task-exp6","35","807669","0.0-9.0-0.9","0","17602","","","","","25","1","2","0","Informative"
"","1401","bandit-task-exp6","36","832758","0.0-9.0-0.10","0","17602","","","","","26","1","2","0","Informative"
"","1259","bandit-task-exp6","37","856190","0.0-9.0-0.11","0","17602","","","","","27","1","2","0","Informative"
"","1845","bandit-task-exp6","38","880695","0.0-9.0-0.12","0","17602","","","","","28","1","1","120","Informative"
"","1222","bandit-task-exp6","39","904560","0.0-9.0-0.13","0","17602","","","","","29","1","1","119","Informative"
"","1340","bandit-task-exp6","40","928010","0.0-9.0-0.14","0","17602","","","","","30","1","1","122","Informative"
"","null","html-keyboard-response","41","943016","0.0-10.0","0","17602","<p><b> Congratulations, you have finished this block. </b> </p><p>Please take a short break before moving onto the next block.</p><p>The next block will start after a 15 second break.</p><b>Remember, the point rewards are the same between blocks","","null","","","","","",""
"","1979","bandit-task-exp6","42","967738","0.0-11.0-0.0","0","17602","","","","","31","1","1","125","Informative"
"","1165","bandit-task-exp6","43","991027","0.0-11.0-0.1","0","17602","","","","","32","1","2","0","Informative"
"","1094","bandit-task-exp6","44","1014180","0.0-11.0-0.2","0","17602","","","","","33","1","2","0","Informative"
"","1051","bandit-task-exp6","45","1037628","0.0-11.0-0.3","0","17602","","","","","34","1","1","127","Informative"
"","1510","bandit-task-exp6","46","1061765","0.0-11.0-0.4","0","17602","","","","","35","1","2","0","Informative"
"","1220","bandit-task-exp6","47","1085326","0.0-11.0-0.5","0","17602","","","","","36","1","1","127","Informative"
"","1053","bandit-task-exp6","48","1108631","0.0-11.0-0.6","0","17602","","","","","37","1","2","0","Informative"
"","924","bandit-task-exp6","49","1132096","0.0-11.0-0.7","0","17602","","","","","38","1","1","130","Informative"
"","1717","bandit-task-exp6","50","1155753","0.0-11.0-0.8","0","17602","","","","","39","1","2","0","Informative"
"","801","bandit-task-exp6","51","1178921","0.0-11.0-0.9","0","17602","","","","","40","1","1","129","Informative"
"","1204","bandit-task-exp6","52","1205234","0.0-11.0-0.10","0","17602","","","","","41","1","2","0","Informative"
"","1339","bandit-task-exp6","53","1228883","0.0-11.0-0.11","0","17602","","","","","42","1","1","129","Informative"
"","2047","bandit-task-exp6","54","1254420","0.0-11.0-0.12","0","17602","","","","","43","1","1","112","Informative"
"","1578","bandit-task-exp6","55","1279100","0.0-11.0-0.13","0","17602","","","","","44","1","1","128","Informative"
"","1634","bandit-task-exp6","56","1303358","0.0-11.0-0.14","0","17602","","","","","45","1","2","0","Informative"
"","null","html-keyboard-response","57","1318365","0.0-12.0","0","17602","<p><b> Congratulations, you have finished this block. </b> </p><p>Please take a short break before moving onto the next block.</p><p>The next block will start after a 15 second break.</p><b>Remember, the point rewards are the same between blocks","","null","","","","","",""
"","2425","bandit-task-exp6","58","1344095","0.0-13.0-0.0","0","17602","","","","","46","1","2","0","Informative"
"","1354","bandit-task-exp6","59","1389543","0.0-13.0-0.1","0","17602","","","","","47","1","2","0","Informative"
"","928","bandit-task-exp6","60","1412401","0.0-13.0-0.2","0","17602","","","","","48","1","2","0","Informative"
"","1501","bandit-task-exp6","61","1436490","0.0-13.0-0.3","0","17602","","","","","49","1","2","0","Informative"
"","1069","bandit-task-exp6","62","1460307","0.0-13.0-0.4","0","17602","","","","","50","1","1","123","Informative"
"","1476","bandit-task-exp6","63","1483501","0.0-13.0-0.5","0","17602","","","","","51","1","1","112","Informative"
"","1251","bandit-task-exp6","64","1507332","0.0-13.0-0.6","0","17602","","","","","52","1","1","118","Informative"
"","1508","bandit-task-exp6","65","1531078","0.0-13.0-0.7","0","17602","","","","","53","1","2","0","Informative"
"","1325","bandit-task-exp6","66","1554846","0.0-13.0-0.8","0","17602","","","","","54","1","1","115","Informative"
"","941","bandit-task-exp6","67","1578095","0.0-13.0-0.9","0","17602","","","","","55","1","2","0","Informative"
"","1107","bandit-task-exp6","68","1602241","0.0-13.0-0.10","0","17602","","","","","56","1","1","116","Informative"
"","1175","bandit-task-exp6","69","1627089","0.0-13.0-0.11","0","17602","","","","","57","1","2","0","Informative"
"","1445","bandit-task-exp6","70","1651137","0.0-13.0-0.12","0","17602","","","","","58","1","1","110","Informative"
"","1204","bandit-task-exp6","71","1676098","0.0-13.0-0.13","0","17602","","","","","59","1","1","116","Informative"
"","2100","bandit-task-exp6","72","1700275","0.0-13.0-0.14","0","17602","","","","","60","1","1","122","Informative"
"","3976","html-button-response","73","1704259","0.0-14.0","0","17602","<p> Congratulations, you have finished the main part of the experiment. </p><p>Before you finish, we have a few short questions about the options and outcomes you saw in the task.</p>","0","","","","","","",""
"","18850.52000000002","survey-text","74","1723124","0.0-15.0","0","17602","","","","{""undefined"":""77""}","","","","",""
"","13067.510000000708","survey-text","75","1736204","0.0-16.0","0","17602","","","","{""undefined"":""90""}","","","","",""
"","6892.295000005048","survey-text","76","1743109","0.0-17.0","0","17602","","","","{""undefined"":""A36QBKROJ4J9EJ""}","","","","",""
"","16680","html-button-response","77","1759796","0.0-18.0","0","17602","<p><b>The task is now finished</b></p>Copy the following code:  <b>17602</b></br><p>This is your HIT which you will need to receive payment via mTurk.</p><p><b>Thank you for taking part and completing the experiment!</b></p>","0","","","","","","",""
