"view_history","rt","trial_type","trial_index","time_elapsed","internal_node_id","condition","PID","stimulus","button_pressed","key_press","responses","banditTrial","choice","cue","feedback","magnit"
"[{""page_index"":0,""viewing_time"":16730}]","16734","instructions","0","16831","0.0-0.0","1","650","","","","","","","","",""
"","9165","html-button-response","1","26019","0.0-1.0","1","650","<p>This experiment is now online instead of in-person in a controlled computer lab due to the current COVID-19 pandemic.</br> Please focus on the experiment and refrain from activities such as:</p>- <b>switching to other tabs on your browser (this will be monitored via the experiment)</br> - going on your mobile phone/cell phone</br> - communicating with others</br></br></b><p>This way you are helping to provide data that is useful for psychological research.</p>","0","","","","","","",""
"","2460","html-keyboard-response","2","28495","0.0-2.0","1","650","<p>Welcome to the experiment.</p><p>Press the SPACE bar to continue</p>","","32","","","","","",""
"","2567.3600000009174","survey-text","3","31094","0.0-3.0","1","650","","","","{""undefined"":""41""}","","","","",""
"","2862","survey-multi-choice","4","33983","0.0-4.0","1","650","","","","{""Q0"":""Female""}","","","","",""
"","16096","html-button-response","5","50099","0.0-5.0-0.0","1","650","<p> On each trial throughout the experiment you will choose between two options </br>a <b>Black Square </b> and <b> Black Triangle </b>, as seen below.</p><div><div style= 'float: left; width: 300px; margin: 10px 10px;'><img src= 'NWTKimg/square.png'></img></div><div style= 'float: right; width: 300px; margin: 10px 10px;'><img src= 'NWTKimg/triangle.png'></img></div></div><br/><br/><br/><br/><br/><br/><br/><br/><br/><br/><br/><p>Each option results in winning points or receiving 0 points.</br></br>There is a 50% chance of either winning or receiving 0 points, but you won't receive the outcome until after a <b> 20 second delay</b>.</p>","0","","","","","","",""
"","28859","html-button-response","6","78978","0.0-5.0-1.0","1","650","<img src= 'NWTKimg/NonInfoDiagram.png'></img><p>As seen above, whether you choose the square or triangle, you will receive a coloured circle after the choice. </p> <p>This circle will be on screen for 20 seconds until you win points or receive 0 points.</p><p>The coloured circle depends on which option you chose. </br> In the above example, choosing a triangle leads to a green circle and choosing the square leads to a red circle.</p>Please note, the circles in your task will be different to the above colours.</br></br>","0","","","","","","",""
"","27881","html-button-response","7","106872","0.0-5.0-2.0","1","650","<p> There will be <b>four blocks</b> in the experiment.</br>You will be given a short 15 second break between each block.</p><p><b>The points and the options will remain the same between the blocks.</b></p>The blocks are there just to give you a small break.</br></br></br></br><p>The points you earn in the task are also equal to <b> actual money</b>.</br> <b>1000 points is equal to $1 USD</b></p><p>This is the rate you will be paid at the experiment's end.","0","","","","","","",""
"","12422","survey-multi-choice","8","119323","0.0-5.0-3.0","1","650","","","","{""Q0"":""20 Seconds"",""Q1"":""True""}","","","","",""
"","2717","html-button-response","9","122069","0.0-6.0","1","650","<p> The experiment is about to start. <br/> Click start to continue, or email your researcher <b>(j.embrey@unsw.edu.au)</b> if you have any questions before starting.","0","","","","","","",""
"","2987","bandit-task-exp6","10","148586","0.0-7.0-0.0","1","650","","","","","1","1","2","0","NonInfo"
"","2931","bandit-task-exp6","11","174662","0.0-7.0-0.1","1","650","","","","","2","2","1","0","NonInfo"
"","1705","bandit-task-exp6","12","199497","0.0-7.0-0.2","1","650","","","","","3","2","2","77","NonInfo"
"","2265","bandit-task-exp6","13","225982","0.0-7.0-0.3","1","650","","","","","4","1","1","124","NonInfo"
"","4298","bandit-task-exp6","14","253736","0.0-7.0-0.4","1","650","","","","","5","2","1","0","NonInfo"
"","2021","bandit-task-exp6","15","278501","0.0-7.0-0.5","1","650","","","","","6","2","1","0","NonInfo"
"","1812","bandit-task-exp6","16","303232","0.0-7.0-0.6","1","650","","","","","7","1","1","112","NonInfo"
"","1489","bandit-task-exp6","17","328406","0.0-7.0-0.7","1","650","","","","","8","1","2","0","NonInfo"
"","2342","bandit-task-exp6","18","355119","0.0-7.0-0.8","1","650","","","","","9","1","2","0","NonInfo"
"","5438","bandit-task-exp6","19","384602","0.0-7.0-0.9","1","650","","","","","10","1","1","118","NonInfo"
"","1385","bandit-task-exp6","20","408730","0.0-7.0-0.10","1","650","","","","","11","2","1","0","NonInfo"
"","1693","bandit-task-exp6","21","433185","0.0-7.0-0.11","1","650","","","","","12","1","2","0","NonInfo"
"","1510","bandit-task-exp6","22","457673","0.0-7.0-0.12","1","650","","","","","13","1","2","0","NonInfo"
"","1530","bandit-task-exp6","23","481802","0.0-7.0-0.13","1","650","","","","","14","1","2","0","NonInfo"
"","1475","bandit-task-exp6","24","505935","0.0-7.0-0.14","1","650","","","","","15","1","2","0","NonInfo"
"","null","html-keyboard-response","25","520960","0.0-8.0","1","650","<p><b> Congratulations, you have finished this block. </b> </p><p>Please take a short break before moving onto the next block.</p><p>The next block will start after a 15 second break.</p><b>Remember, the point rewards are the same between blocks","","null","","","","","",""
"","2101","bandit-task-exp6","26","546042","0.0-9.0-0.0","1","650","","","","","16","1","1","115","NonInfo"
"","3432","bandit-task-exp6","27","575853","0.0-9.0-0.1","1","650","","","","","17","1","1","128","NonInfo"
"","3204","bandit-task-exp6","28","602113","0.0-9.0-0.2","1","650","","","","","18","2","1","0","NonInfo"
"","1268","bandit-task-exp6","29","626316","0.0-9.0-0.3","1","650","","","","","19","2","1","0","NonInfo"
"","1306","bandit-task-exp6","30","651009","0.0-9.0-0.4","1","650","","","","","20","2","2","77","NonInfo"
"","4292","bandit-task-exp6","31","678350","0.0-9.0-0.5","1","650","","","","","21","1","1","129","NonInfo"
"","2844","bandit-task-exp6","32","706374","0.0-9.0-0.6","1","650","","","","","22","1","1","115","NonInfo"
"","1606","bandit-task-exp6","33","730834","0.0-9.0-0.7","1","650","","","","","23","2","1","0","NonInfo"
"","2791","bandit-task-exp6","34","758291","0.0-9.0-0.8","1","650","","","","","24","1","2","0","NonInfo"
"","3072","bandit-task-exp6","35","784576","0.0-9.0-0.9","1","650","","","","","25","1","1","113","NonInfo"
"","4022","bandit-task-exp6","36","812267","0.0-9.0-0.10","1","650","","","","","26","1","2","0","NonInfo"
"","1443","bandit-task-exp6","37","837379","0.0-9.0-0.11","1","650","","","","","27","1","2","0","NonInfo"
"","1755","bandit-task-exp6","38","862930","0.0-9.0-0.12","1","650","","","","","28","1","2","0","NonInfo"
"","1341","bandit-task-exp6","39","887606","0.0-9.0-0.13","1","650","","","","","29","1","1","111","NonInfo"
"","2169","bandit-task-exp6","40","913075","0.0-9.0-0.14","1","650","","","","","30","1","1","114","NonInfo"
"","null","html-keyboard-response","41","928096","0.0-10.0","1","650","<p><b> Congratulations, you have finished this block. </b> </p><p>Please take a short break before moving onto the next block.</p><p>The next block will start after a 15 second break.</p><b>Remember, the point rewards are the same between blocks","","null","","","","","",""
"","3321","bandit-task-exp6","42","955579","0.0-11.0-0.0","1","650","","","","","31","1","2","0","NonInfo"
"","3006","bandit-task-exp6","43","981477","0.0-11.0-0.1","1","650","","","","","32","1","2","0","NonInfo"
"","2266","bandit-task-exp6","44","1006696","0.0-11.0-0.2","1","650","","","","","33","1","2","0","NonInfo"
"","1767","bandit-task-exp6","45","1030997","0.0-11.0-0.3","1","650","","","","","34","1","1","115","NonInfo"
"","2998","bandit-task-exp6","46","1056884","0.0-11.0-0.4","1","650","","","","","35","1","2","0","NonInfo"
"","1269","bandit-task-exp6","47","1081908","0.0-11.0-0.5","1","650","","","","","36","2","2","79","NonInfo"
"","1406","bandit-task-exp6","48","1107314","0.0-11.0-0.6","1","650","","","","","37","1","2","0","NonInfo"
"","3392","bandit-task-exp6","49","1134402","0.0-11.0-0.7","1","650","","","","","38","1","1","112","NonInfo"
"","4955","bandit-task-exp6","50","1162919","0.0-11.0-0.8","1","650","","","","","39","2","2","72","NonInfo"
"","2296","bandit-task-exp6","51","1189887","0.0-11.0-0.9","1","650","","","","","40","1","2","0","NonInfo"
"","1937","bandit-task-exp6","52","1215182","0.0-11.0-0.10","1","650","","","","","41","1","2","0","NonInfo"
"","1528","bandit-task-exp6","53","1241239","0.0-11.0-0.11","1","650","","","","","42","1","2","0","NonInfo"
"","1754","bandit-task-exp6","54","1266789","0.0-11.0-0.12","1","650","","","","","43","1","1","122","NonInfo"
"","1747","bandit-task-exp6","55","1296327","0.0-11.0-0.13","1","650","","","","","44","2","1","0","NonInfo"
"","6520","bandit-task-exp6","56","1326054","0.0-11.0-0.14","1","650","","","","","45","1","2","0","NonInfo"
"","null","html-keyboard-response","57","1341081","0.0-12.0","1","650","<p><b> Congratulations, you have finished this block. </b> </p><p>Please take a short break before moving onto the next block.</p><p>The next block will start after a 15 second break.</p><b>Remember, the point rewards are the same between blocks","","null","","","","","",""
"","4118","bandit-task-exp6","58","1368283","0.0-13.0-0.0","1","650","","","","","46","1","2","0","NonInfo"
"","1242","bandit-task-exp6","59","1392449","0.0-13.0-0.1","1","650","","","","","47","2","1","0","NonInfo"
"","7420","bandit-task-exp6","60","1426522","0.0-13.0-0.2","1","650","","","","","48","2","2","90","NonInfo"
"","1549","bandit-task-exp6","61","1453018","0.0-13.0-0.3","1","650","","","","","49","1","1","112","NonInfo"
"","1764","bandit-task-exp6","62","1478007","0.0-13.0-0.4","1","650","","","","","50","2","2","82","NonInfo"
"","1827","bandit-task-exp6","63","1502929","0.0-13.0-0.5","1","650","","","","","51","1","2","0","NonInfo"
"","2594","bandit-task-exp6","64","1528260","0.0-13.0-0.6","1","650","","","","","52","1","2","0","NonInfo"
"","7918","bandit-task-exp6","65","1560715","0.0-13.0-0.7","1","650","","","","","53","1","2","0","NonInfo"
"","3517","bandit-task-exp6","66","1587732","0.0-13.0-0.8","1","650","","","","","54","1","2","0","NonInfo"
"","1738","bandit-task-exp6","67","1615360","0.0-13.0-0.9","1","650","","","","","55","1","2","0","NonInfo"
"","2853","bandit-task-exp6","68","1641355","0.0-13.0-0.10","1","650","","","","","56","1","1","124","NonInfo"
"","1485","bandit-task-exp6","69","1666185","0.0-13.0-0.11","1","650","","","","","57","2","1","0","NonInfo"
"","1324","bandit-task-exp6","70","1690497","0.0-13.0-0.12","1","650","","","","","58","2","2","87","NonInfo"
"","1497","bandit-task-exp6","71","1716401","0.0-13.0-0.13","1","650","","","","","59","1","1","110","NonInfo"
"","1600","bandit-task-exp6","72","1741287","0.0-13.0-0.14","1","650","","","","","60","2","1","0","NonInfo"
"","4139","html-button-response","73","1745440","0.0-14.0","1","650","<p> Congratulations, you have finished the main part of the experiment. </p><p>Before you finish, we have a few short questions about the options and outcomes you saw in the task.</p>","0","","","","","","",""
"","13453.809999998892","survey-text","74","1758931","0.0-15.0","1","650","","","","{""undefined"":""77""}","","","","",""
"","13262.610000001732","survey-text","75","1772226","0.0-16.0","1","650","","","","{""undefined"":""120""}","","","","",""
"","9903.975000001257","survey-text","76","1782162","0.0-17.0","1","650","","","","{""undefined"":""A19S4W3QLLQJ0T""}","","","","",""
"","18928","html-button-response","77","1801104","0.0-18.0","1","650","<p><b>The task is now finished</b></p>Copy the following code:  <b>650</b></br><p>This is your HIT which you will need to receive payment via mTurk.</p><p><b>Thank you for taking part and completing the experiment!</b></p>","0","","","","","","",""
