"view_history","rt","trial_type","trial_index","time_elapsed","internal_node_id","condition","PID","stimulus","button_pressed","key_press","responses","banditTrial","choice","cue","feedback","magnit"
"[{""page_index"":0,""viewing_time"":28930}]","28931","instructions","0","28939","0.0-0.0","1","71111","","","","","","","","",""
"","52184","html-button-response","1","81130","0.0-1.0","1","71111","<p>This experiment is now online instead of in-person in a controlled computer lab due to the current COVID-19 pandemic.</br> Please focus on the experiment and refrain from activities such as:</p>- <b>switching to other tabs on your browser (this will be monitored via the experiment)</br> - going on your mobile phone/cell phone</br> - communicating with others</br></br></b><p>This way you are helping to provide data that is useful for psychological research.</p>","0","","","","","","",""
"","6316","html-keyboard-response","2","87454","0.0-2.0","1","71111","<p>Welcome to the experiment.</p><p>Press the SPACE bar to continue</p>","","32","","","","","",""
"","6567.879999987781","survey-text","3","94032","0.0-3.0","1","71111","","","","{""undefined"":""48""}","","","","",""
"","10969","survey-multi-choice","4","105013","0.0-4.0","1","71111","","","","{""Q0"":""Male""}","","","","",""
"","77539","html-button-response","5","182558","0.0-5.0-0.0","1","71111","<p> On each trial throughout the experiment you will choose between two options </br>a <b>Black Square </b> and <b> Black Triangle </b>, as seen below.</p><div><div style= 'float: left; width: 300px; margin: 10px 10px;'><img src= 'NWTKimg/square.png'></img></div><div style= 'float: right; width: 300px; margin: 10px 10px;'><img src= 'NWTKimg/triangle.png'></img></div></div><br/><br/><br/><br/><br/><br/><br/><br/><br/><br/><br/><p>Each option results in winning points or receiving 0 points.</br></br>There is a 50% chance of either winning or receiving 0 points, but you won't receive the outcome until after a <b> 20 second delay</b>.</p>","0","","","","","","",""
"","138648","html-button-response","6","321212","0.0-5.0-1.0","1","71111","<img src= 'NWTKimg/NonInfoDiagram.png'></img><p>As seen above, whether you choose the square or triangle, you will receive a coloured circle after the choice. </p> <p>This circle will be on screen for 20 seconds until you win points or receive 0 points.</p><p>The coloured circle depends on which option you chose. </br> In the above example, choosing a triangle leads to a green circle and choosing the square leads to a red circle.</p>Please note, the circles in your task will be different to the above colours.</br></br>","0","","","","","","",""
"","32053","html-button-response","7","353275","0.0-5.0-2.0","1","71111","<p> There will be <b>four blocks</b> in the experiment.</br>You will be given a short 15 second break between each block.</p><p><b>The points and the options will remain the same between the blocks.</b></p>The blocks are there just to give you a small break.</br></br></br></br><p>The points you earn in the task are also equal to <b> actual money</b>.</br> <b>1000 points is equal to $1 USD</b></p><p>This is the rate you will be paid at the experiment's end.","0","","","","","","",""
"","20268","survey-multi-choice","8","373553","0.0-5.0-3.0","1","71111","","","","{""Q0"":""20 Seconds"",""Q1"":""True""}","","","","",""
"","29763","html-button-response","9","403326","0.0-6.0","1","71111","<p> The experiment is about to start. <br/> Click start to continue, or email your researcher <b>(j.embrey@unsw.edu.au)</b> if you have any questions before starting.","0","","","","","","",""
"","6367","bandit-task-exp6","10","433827","0.0-7.0-0.0","1","71111","","","","","1","1","2","0","NonInfo"
"","8296","bandit-task-exp6","11","466022","0.0-7.0-0.1","1","71111","","","","","2","2","2","76","NonInfo"
"","4060","bandit-task-exp6","12","493579","0.0-7.0-0.2","1","71111","","","","","3","2","1","0","NonInfo"
"","6864","bandit-task-exp6","13","523931","0.0-7.0-0.3","1","71111","","","","","4","2","1","0","NonInfo"
"","4890","bandit-task-exp6","14","552218","0.0-7.0-0.4","1","71111","","","","","5","1","2","0","NonInfo"
"","2789","bandit-task-exp6","15","579346","0.0-7.0-0.5","1","71111","","","","","6","2","2","77","NonInfo"
"","2203","bandit-task-exp6","16","605618","0.0-7.0-0.6","1","71111","","","","","7","1","1","111","NonInfo"
"","2139","bandit-task-exp6","17","632585","0.0-7.0-0.7","1","71111","","","","","8","1","2","0","NonInfo"
"","3409","bandit-task-exp6","18","659556","0.0-7.0-0.8","1","71111","","","","","9","1","1","122","NonInfo"
"","1630","bandit-task-exp6","19","683770","0.0-7.0-0.9","1","71111","","","","","10","1","2","0","NonInfo"
"","3377","bandit-task-exp6","20","714687","0.0-7.0-0.10","1","71111","","","","","11","1","2","0","NonInfo"
"","3788","bandit-task-exp6","21","744535","0.0-7.0-0.11","1","71111","","","","","12","1","1","127","NonInfo"
"","5706","bandit-task-exp6","22","774379","0.0-7.0-0.12","1","71111","","","","","13","2","2","74","NonInfo"
"","1673","bandit-task-exp6","23","800717","0.0-7.0-0.13","1","71111","","","","","14","2","1","0","NonInfo"
"","1384","bandit-task-exp6","24","826197","0.0-7.0-0.14","1","71111","","","","","15","2","2","73","NonInfo"
"","null","html-keyboard-response","25","841341","0.0-8.0","1","71111","<p><b> Congratulations, you have finished this block. </b> </p><p>Please take a short break before moving onto the next block.</p><p>The next block will start after a 15 second break.</p><b>Remember, the point rewards are the same between blocks","","null","","","","","",""
"","2962","bandit-task-exp6","26","866763","0.0-9.0-0.0","1","71111","","","","","16","2","1","0","NonInfo"
"","1971","bandit-task-exp6","27","891185","0.0-9.0-0.1","1","71111","","","","","17","1","2","0","NonInfo"
"","1686","bandit-task-exp6","28","915166","0.0-9.0-0.2","1","71111","","","","","18","1","2","0","NonInfo"
"","1484","bandit-task-exp6","29","939357","0.0-9.0-0.3","1","71111","","","","","19","1","1","124","NonInfo"
"","1453","bandit-task-exp6","30","964427","0.0-9.0-0.4","1","71111","","","","","20","1","1","124","NonInfo"
"","1883","bandit-task-exp6","31","989721","0.0-9.0-0.5","1","71111","","","","","21","1","2","0","NonInfo"
"","1521","bandit-task-exp6","32","1014817","0.0-9.0-0.6","1","71111","","","","","22","2","1","0","NonInfo"
"","1163","bandit-task-exp6","33","1041466","0.0-9.0-0.7","1","71111","","","","","23","1","2","0","NonInfo"
"","2521","bandit-task-exp6","34","1067348","0.0-9.0-0.8","1","71111","","","","","24","1","1","121","NonInfo"
"","2744","bandit-task-exp6","35","1094246","0.0-9.0-0.9","1","71111","","","","","25","1","2","0","NonInfo"
"","2326","bandit-task-exp6","36","1120453","0.0-9.0-0.10","1","71111","","","","","26","1","1","130","NonInfo"
"","1577","bandit-task-exp6","37","1145777","0.0-9.0-0.11","1","71111","","","","","27","1","2","0","NonInfo"
"","1544","bandit-task-exp6","38","1171467","0.0-9.0-0.12","1","71111","","","","","28","1","2","0","NonInfo"
"","1595","bandit-task-exp6","39","1196793","0.0-9.0-0.13","1","71111","","","","","29","1","1","115","NonInfo"
"","1489","bandit-task-exp6","40","1221937","0.0-9.0-0.14","1","71111","","","","","30","1","1","110","NonInfo"
"","null","html-keyboard-response","41","1236962","0.0-10.0","1","71111","<p><b> Congratulations, you have finished this block. </b> </p><p>Please take a short break before moving onto the next block.</p><p>The next block will start after a 15 second break.</p><b>Remember, the point rewards are the same between blocks","","null","","","","","",""
"","3202","bandit-task-exp6","42","1265197","0.0-11.0-0.0","1","71111","","","","","31","2","2","78","NonInfo"
"","1498","bandit-task-exp6","43","1291237","0.0-11.0-0.1","1","71111","","","","","32","1","1","110","NonInfo"
"","1416","bandit-task-exp6","44","1316593","0.0-11.0-0.2","1","71111","","","","","33","1","2","0","NonInfo"
"","1068","bandit-task-exp6","45","1341976","0.0-11.0-0.3","1","71111","","","","","34","2","1","0","NonInfo"
"","1241","bandit-task-exp6","46","1368159","0.0-11.0-0.4","1","71111","","","","","35","1","1","121","NonInfo"
"","1503","bandit-task-exp6","47","1394279","0.0-11.0-0.5","1","71111","","","","","36","1","2","0","NonInfo"
"","1413","bandit-task-exp6","48","1420792","0.0-11.0-0.6","1","71111","","","","","37","1","2","0","NonInfo"
"","1506","bandit-task-exp6","49","1448155","0.0-11.0-0.7","1","71111","","","","","38","1","1","117","NonInfo"
"","1347","bandit-task-exp6","50","1474375","0.0-11.0-0.8","1","71111","","","","","39","1","1","117","NonInfo"
"","1437","bandit-task-exp6","51","1501157","0.0-11.0-0.9","1","71111","","","","","40","1","2","0","NonInfo"
"","1024","bandit-task-exp6","52","1526796","0.0-11.0-0.10","1","71111","","","","","41","1","2","0","NonInfo"
"","2648","bandit-task-exp6","53","1552095","0.0-11.0-0.11","1","71111","","","","","42","1","2","0","NonInfo"
"","1347","bandit-task-exp6","54","1576247","0.0-11.0-0.12","1","71111","","","","","43","1","2","0","NonInfo"
"","1259","bandit-task-exp6","55","1599923","0.0-11.0-0.13","1","71111","","","","","44","2","2","70","NonInfo"
"","1235","bandit-task-exp6","56","1623888","0.0-11.0-0.14","1","71111","","","","","45","2","1","0","NonInfo"
"","null","html-keyboard-response","57","1639013","0.0-12.0","1","71111","<p><b> Congratulations, you have finished this block. </b> </p><p>Please take a short break before moving onto the next block.</p><p>The next block will start after a 15 second break.</p><b>Remember, the point rewards are the same between blocks","","null","","","","","",""
"","4044","bandit-task-exp6","58","1677924","0.0-13.0-0.0","1","71111","","","","","46","2","2","88","NonInfo"
"","1278","bandit-task-exp6","59","1703387","0.0-13.0-0.1","1","71111","","","","","47","1","1","115","NonInfo"
"","1321","bandit-task-exp6","60","1728143","0.0-13.0-0.2","1","71111","","","","","48","1","1","116","NonInfo"
"","1102","bandit-task-exp6","61","1754508","0.0-13.0-0.3","1","71111","","","","","49","1","2","0","NonInfo"
"","1287","bandit-task-exp6","62","1779061","0.0-13.0-0.4","1","71111","","","","","50","1","2","0","NonInfo"
"","1601","bandit-task-exp6","63","1803802","0.0-13.0-0.5","1","71111","","","","","51","1","1","130","NonInfo"
"","1863","bandit-task-exp6","64","1828927","0.0-13.0-0.6","1","71111","","","","","52","2","2","70","NonInfo"
"","1220","bandit-task-exp6","65","1853672","0.0-13.0-0.7","1","71111","","","","","53","2","2","76","NonInfo"
"","1299","bandit-task-exp6","66","1878132","0.0-13.0-0.8","1","71111","","","","","54","1","2","0","NonInfo"
"","1391","bandit-task-exp6","67","1902517","0.0-13.0-0.9","1","71111","","","","","55","1","2","0","NonInfo"
"","1219","bandit-task-exp6","68","1928207","0.0-13.0-0.10","1","71111","","","","","56","2","2","77","NonInfo"
"","1547","bandit-task-exp6","69","1953208","0.0-13.0-0.11","1","71111","","","","","57","2","2","88","NonInfo"
"","1550","bandit-task-exp6","70","1978075","0.0-13.0-0.12","1","71111","","","","","58","1","2","0","NonInfo"
"","1510","bandit-task-exp6","71","2002387","0.0-13.0-0.13","1","71111","","","","","59","1","2","0","NonInfo"
"","1532","bandit-task-exp6","72","2053547","0.0-13.0-0.14","1","71111","","","","","60","1","1","116","NonInfo"
"","4497","html-button-response","73","2058049","0.0-14.0","1","71111","<p> Congratulations, you have finished the main part of the experiment. </p><p>Before you finish, we have a few short questions about the options and outcomes you saw in the task.</p>","0","","","","","","",""
"","88970.24500000407","survey-text","74","2147029","0.0-15.0","1","71111","","","","{""undefined"":""3000""}","","","","",""
"","13098.064999998081","survey-text","75","2160139","0.0-16.0","1","71111","","","","{""undefined"":""1500""}","","","","",""
"","6342.445000017062","survey-text","76","2166491","0.0-17.0","1","71111","","","","{""undefined"":""A2RQ545U25DV7C""}","","","","",""
"","113339","html-button-response","77","2279839","0.0-18.0","1","71111","<p><b>The task is now finished</b></p>Copy the following code:  <b>71111</b></br><p>This is your HIT which you will need to receive payment via mTurk.</p><p><b>Thank you for taking part and completing the experiment!</b></p>","0","","","","","","",""
